File: raw.data/Petri_dishes/glass_nn.csv
Wavelength (nm),Transmittance(%),Std.Dev.
190,0.0164358,0.0036111
191,0.0193166,0.00369106
192,0.0111253,0.00349104
193,0.0115052,0.00286955
194,0.0138933,0.00270435
195,0.0100612,0.00216362
196,0.0129444,0.00288748
197,0.0101611,0.00740698
198,0.01,0.0154608
199,0.0100027,0.00758838
200,0.01,0.00580371
201,0.01,0.00387436
202,0.01,0.00460117
203,0.01,0.0039753
204,0.01,0.0039904
205,0.01,0.00405089
206,0.01,0.0032708
207,0.01,0.00804215
208,0.01,0.014299
209,0.01,0.00974501
210,0.0100408,0.00469318
211,0.01,0.00220892
212,0.0107392,0.00526954
213,0.0119434,0.0123007
214,0.01,0.00526936
215,0.0101366,0.00353459
216,0.01,0.00512084
217,0.0110439,0.00307566
218,0.0119645,0.00329836
219,0.01,0.0035583
220,0.012819,0.00611921
221,0.0127823,0.0102658
222,0.01,0.00858208
223,0.010136,0.0161691
224,0.01,0.0101055
225,0.01,0.0102134
226,0.01,0.00610566
227,0.01,0.00746787
228,0.01,0.00460831
229,0.01,0.00311935
230,0.01,0.00217577
231,0.01,0.00221863
232,0.01,0.00314422
233,0.01,0.00255157
234,0.01,0.00280943
235,0.01,0.00349435
236,0.01,0.00288911
237,0.01,0.00249151
238,0.0100202,0.00238281
239,0.01,0.00383546
240,0.0118078,0.00337942
241,0.01,0.0158441
242,0.01,0.00776435
243,0.0101863,0.00168126
244,0.0139608,0.00258556
245,0.0112266,0.0025816
246,0.014024,0.0051086
247,0.0103767,0.00203556
248,0.0145217,0.00197909
249,0.0101239,0.0011466
250,0.0138626,0.00268977
251,0.0129789,0.00254169
252,0.0129966,0.00339903
253,0.0108761,0.00293475
254,0.013615,0.00226286
255,0.0132478,0.00164395
256,0.012929,0.00246975
257,0.0159594,0.00236335
258,0.0169979,0.0026285
259,0.0152473,0.00204795
260,0.0140632,0.00167996
261,0.0140731,0.00233267
262,0.0113201,0.00312049
263,0.01,0.00337023
264,0.01,0.00220497
265,0.0152933,0.00206028
266,0.0189341,0.0030414
267,0.0209671,0.00230858
268,0.0183865,0.00189497
269,0.0167296,0.00224969
270,0.021978,0.0032804
271,0.0175203,0.00286939
272,0.0220171,0.00295154
273,0.026995,0.00235331
274,0.0331333,0.00259992
275,0.033929,0.00445231
276,0.0405412,0.00376084
277,0.0537867,0.00254125
278,0.0566691,0.00371531
279,0.0664982,0.00341715
280,0.0889163,0.00295571
281,0.0987901,0.00172327
282,0.132137,0.00237544
283,0.164724,0.0039841
284,0.222605,0.00412968
285,0.297648,0.00307977
286,0.392943,0.00321669
287,0.518711,0.00466404
288,0.66605,0.00459241
289,0.872194,0.00361206
290,1.13775,0.00423738
291,1.45401,0.00458234
292,1.86423,0.00411681
293,2.33905,0.00530119
294,2.90512,0.00477718
295,3.59832,0.00366253
296,4.41554,0.00365688
297,5.35112,0.00360252
298,6.41631,0.0040257
299,7.64556,0.00470859
300,9.00611,0.00484274
301,10.5073,0.00431253
302,12.1585,0.00463458
303,13.9393,0.005385
304,15.8605,0.00494465
305,17.9245,0.0057753
306,20.0764,0.00706848
307,22.3415,0.00802429
308,24.6926,0.00688651
309,27.1382,0.0064141
310,29.6131,0.00689632
311,32.1221,0.00766477
312,34.7016,0.00801242
313,37.2469,0.00813915
314,39.7922,0.00883406
315,42.3457,0.00898402
316,44.8501,0.0095682
317,47.331,0.0117322
318,49.7237,0.0114781
319,52.0608,0.0124621
320,54.358,0.011324
321,56.5514,0.0127687
322,58.6779,0.0109325
323,60.699,0.0128875
324,62.6669,0.0137659
325,64.5023,0.0135658
326,66.2729,0.0151882
327,67.9523,0.0145944
328,69.5159,0.0175439
329,71.0196,0.0162023
330,72.4049,0.0135804
331,73.7171,0.015722
332,74.944,0.016238
333,76.0901,0.0192278
334,77.164,0.0191113
335,78.1797,0.0154504
336,79.0967,0.0159369
337,79.9817,0.0177102
338,80.7495,0.018448
339,81.4879,0.0185279
340,82.1958,0.0145461
341,82.8028,0.0172856
342,83.3819,0.0159528
343,83.8945,0.0199462
344,84.3998,0.0230874
345,84.841,0.0185917
346,85.254,0.0180141
347,85.6558,0.022903
348,86.0074,0.022244
349,86.3297,0.0240854
350,86.6327,0.0201316
351,86.8923,0.0181669
352,87.1714,0.0161064
353,87.3883,0.0173381
354,87.6184,0.0147565
355,87.8252,0.0178978
356,88.0264,0.0234067
357,88.2297,0.0219869
358,88.3963,0.0283867
359,88.5124,0.0225962
360,88.6323,0.0271024
361,88.7137,0.01741
362,88.8014,0.016832
363,88.8802,0.0176494
364,89.0335,0.0180331
365,89.2115,0.0273175
366,89.3478,0.0213011
367,89.4124,0.0201832
368,89.4541,0.0274719
369,89.5295,0.0274902
370,89.607,0.0183761
371,89.6466,0.0201044
372,89.6401,0.0226073
373,89.5815,0.0192664
374,89.6059,0.0193608
375,89.5661,0.0240557
376,89.5303,0.0243393
377,89.5258,0.0209533
378,89.5002,0.0170224
379,89.4789,0.021737
380,89.4746,0.0290503
381,89.5021,0.0270261
382,89.5155,0.0261864
383,89.5874,0.0214301
384,89.671,0.0213377
385,89.7567,0.0242286
386,89.8374,0.0219491
387,89.9401,0.0212022
388,90.0249,0.0250634
389,90.0534,0.0191654
390,90.1336,0.01717
391,90.1801,0.0185619
392,90.2751,0.0211329
393,90.3275,0.0193543
394,90.3137,0.0198183
395,90.3815,0.0194481
396,90.4174,0.0203171
397,90.4612,0.0210681
398,90.5041,0.0206249
399,90.4858,0.0166487
400,90.4424,0.0194966
401,90.489,0.0169955
402,90.4952,0.015323
403,90.5313,0.0144451
404,90.5397,0.0128376
405,90.5544,0.0196625
406,90.5312,0.0235075
407,90.4559,0.015957
408,90.4925,0.0170495
409,90.5457,0.0233056
410,90.5242,0.0189461
411,90.4944,0.0187844
412,90.5273,0.0191242
413,90.5435,0.0223204
414,90.5002,0.0212809
415,90.4921,0.0198499
416,90.5125,0.0197277
417,90.5164,0.0223177
418,90.5043,0.0216522
419,90.4947,0.0176594
420,90.5428,0.0151149
421,90.5719,0.0215966
422,90.5623,0.0239356
423,90.5342,0.0181986
424,90.5352,0.0184586
425,90.5401,0.0213982
426,90.5196,0.0233282
427,90.6203,0.0237796
428,90.5614,0.0218711
429,90.5629,0.0195453
430,90.6229,0.0210146
431,90.541,0.0218105
432,90.4987,0.0266836
433,90.5891,0.0207537
434,90.6628,0.0163589
435,90.5295,0.0200379
436,90.5852,0.0232146
437,90.5898,0.0209153
438,90.6136,0.0175529
439,90.5975,0.0188305
440,90.5771,0.0205897
441,90.649,0.0249946
442,90.5939,0.0216631
443,90.565,0.0190747
444,90.6142,0.0148294
445,90.6161,0.0195609
446,90.616,0.026312
447,90.625,0.0253523
448,90.6319,0.0209643
449,90.6713,0.0172833
450,90.6837,0.0188752
451,90.6588,0.0164186
452,90.7108,0.0172443
453,90.6976,0.0184987
454,90.6949,0.0216442
455,90.7578,0.0255768
456,90.7923,0.027322
457,90.7842,0.0265449
458,90.8253,0.0205892
459,90.8193,0.0294977
460,90.8048,0.0246757
461,90.8174,0.0212355
462,90.8326,0.0200098
463,90.903,0.0246236
464,90.9559,0.0210672
465,90.9478,0.021476
466,90.9048,0.0172708
467,90.8787,0.020134
468,90.9321,0.026009
469,90.9272,0.0272399
470,90.9516,0.0196292
471,90.9797,0.0210504
472,91.01,0.0176379
473,91.0542,0.0148659
474,91.0104,0.0196053
475,91.0262,0.0199135
476,91.0729,0.0160901
477,91.0324,0.0189066
478,91.069,0.0164556
479,91.0868,0.0202854
480,91.075,0.0194518
481,91.0771,0.0175953
482,91.098,0.0160531
483,91.1091,0.0199698
484,91.1027,0.0197223
485,91.3433,0.0171943
486,91.3651,0.01765
487,90.7622,0.0213857
488,90.9603,0.0223317
489,91.122,0.0168803
490,91.1578,0.0194484
491,91.1418,0.0197485
492,91.1417,0.0147707
493,91.1777,0.0154464
494,91.1543,0.0188928
495,91.1735,0.0188851
496,91.2004,0.0224725
497,91.1725,0.0208365
498,91.1925,0.020586
499,91.2183,0.0173628
500,91.1904,0.0150608
501,91.1952,0.0163575
502,91.2034,0.0173723
503,91.2174,0.0162738
504,91.2155,0.0188129
505,91.2257,0.0168296
506,91.2659,0.0193229
507,91.2185,0.0211356
508,91.2352,0.0151635
509,91.2447,0.0155567
510,91.2366,0.0214747
511,91.245,0.0196354
512,91.2382,0.0169969
513,91.2432,0.0198495
514,91.2435,0.0190856
515,91.2419,0.0153059
516,91.2556,0.016222
517,91.2582,0.0140616
518,91.2476,0.01617
519,91.2634,0.0181891
520,91.2331,0.013781
521,91.2867,0.0134841
522,91.2581,0.0141874
523,91.2532,0.016258
524,91.2574,0.0174679
525,91.2539,0.0234362
526,91.2648,0.0211326
527,91.2647,0.0220687
528,91.2735,0.0193821
529,91.284,0.0173356
530,91.271,0.0165264
531,91.3011,0.0181094
532,91.2823,0.0217202
533,91.29,0.0218314
534,91.3013,0.0188172
535,91.2733,0.0171454
536,91.2736,0.0133741
537,91.2712,0.0161245
538,91.2818,0.0164119
539,91.2853,0.0196563
540,91.2785,0.0153278
541,91.2888,0.0150444
542,91.2875,0.0155876
543,91.2685,0.0183604
544,91.2522,0.0165552
545,91.2611,0.0158
546,91.2687,0.0160507
547,91.2479,0.0145439
548,91.2773,0.0169245
549,91.2483,0.0165484
550,91.2528,0.0164647
551,91.2607,0.0172272
552,91.2517,0.0151559
553,91.2363,0.0170201
554,91.2325,0.0167801
555,91.2573,0.0163462
556,91.2395,0.0186728
557,91.2276,0.0191148
558,91.2286,0.018085
559,91.2339,0.0170603
560,91.2174,0.0164235
561,91.2214,0.0151863
562,91.1994,0.0159032
563,91.2047,0.0154168
564,91.2055,0.018151
565,91.2111,0.0166535
566,91.1975,0.014741
567,91.2068,0.0172786
568,91.1915,0.0187155
569,91.2124,0.0165922
570,91.1999,0.014624
571,91.1862,0.0159129
572,91.1671,0.0175502
573,91.1408,0.0185395
574,91.2037,0.0182932
575,91.1298,0.0176015
576,91.1311,0.0161896
577,91.1964,0.0160789
578,91.146,0.0161455
579,91.0933,0.0138771
580,91.0911,0.0167
581,91.1611,0.0198008
582,91.1702,0.0167172
583,90.9808,0.0146856
584,91.0874,0.0170026
585,91.1456,0.0199637
586,91.0595,0.0201021
587,91.071,0.0188485
588,91.0871,0.0173202
589,91.0339,0.0175949
590,91.0524,0.0160217
591,91.0472,0.0172075
592,91.0736,0.016214
593,91.1162,0.0122852
594,91.0339,0.0154482
595,91.0552,0.0136171
596,91.0267,0.0156873
597,91.0273,0.0189999
598,91.035,0.0168224
599,91.0382,0.0172791
600,91.01,0.0172824
601,91.0296,0.0151801
602,91.0022,0.0179486
603,91.0336,0.0159233
604,91.0053,0.0165328
605,90.9738,0.0182733
606,90.9986,0.0202742
607,90.9819,0.0165354
608,90.9845,0.0183316
609,90.9698,0.0197027
610,90.9916,0.0170466
611,90.9595,0.0198578
612,90.9563,0.0154208
613,90.9629,0.0172446
614,90.9458,0.0167881
615,90.9414,0.0167117
616,90.9401,0.0176413
617,90.9327,0.0164706
618,90.9568,0.0149043
619,91.0322,0.0160599
620,91.175,0.018119
621,91.261,0.0178414
622,91.3221,0.0144657
623,91.1697,0.0219743
624,90.8521,0.018287
625,90.6045,0.0177657
626,90.4897,0.0163204
627,90.5286,0.0167989
628,90.6421,0.0175818
629,90.765,0.0191838
630,90.8718,0.015915
631,90.8819,0.01685
632,90.8372,0.0191154
633,90.8842,0.0168058
634,90.8735,0.0180555
635,90.8628,0.0180745
636,90.8157,0.0188416
637,90.7862,0.0187031
638,90.786,0.0187174
639,90.7701,0.0158171
640,90.7886,0.0147661
641,90.7638,0.0173141
642,90.7935,0.0201871
643,90.8365,0.0156501
644,90.889,0.0173044
645,90.8743,0.0186461
646,90.8392,0.0183257
647,90.742,0.0179847
648,90.6884,0.0190055
649,90.6289,0.0223091
650,90.6151,0.0218746
651,90.6475,0.0204281
652,90.6622,0.0174692
653,90.6937,0.0182143
654,90.6899,0.0192875
655,90.6544,0.0198925
656,90.9729,0.0198823
657,90.3826,0.0192764
658,90.4051,0.0198701
659,90.6856,0.0175049
660,90.6161,0.0174751
661,90.6453,0.0187957
662,90.6553,0.0162255
663,90.6158,0.0183557
664,90.5982,0.0175611
665,90.6077,0.0159673
666,90.6084,0.0140181
667,90.6092,0.0182017
668,90.5751,0.0161455
669,90.5357,0.0197897
670,90.5581,0.0182738
671,90.5721,0.0174499
672,90.567,0.0195447
673,90.5384,0.0164726
674,90.5009,0.0165044
675,90.4909,0.0176481
676,90.5263,0.0169472
677,90.5207,0.0190135
678,90.5155,0.0214877
679,90.4994,0.0182149
680,90.4569,0.0166561
681,90.4396,0.0179247
682,90.4251,0.0193166
683,90.4326,0.0163303
684,90.4271,0.0176149
685,90.4323,0.0192409
686,90.4295,0.0195937
687,90.395,0.0190751
688,90.3645,0.0205184
689,90.361,0.0190421
690,90.3442,0.0155612
691,90.3551,0.0172621
692,90.3584,0.0151859
693,90.3524,0.0178207
694,90.3612,0.0206048
695,90.324,0.0205915
696,90.3382,0.0186726
697,90.304,0.0201906
698,90.297,0.0178274
699,90.2794,0.0182661
700,90.2684,0.0230509
701,90.2632,0.0175015
702,90.2295,0.0154756
703,90.2411,0.0158836
704,90.2388,0.0211448
705,90.2195,0.0198871
706,90.2123,0.0179178
707,90.2081,0.0180826
708,90.2003,0.0172067
709,90.195,0.0178779
710,90.1817,0.0175336
711,90.1987,0.0158897
712,90.177,0.0179403
713,90.1652,0.0169292
714,90.1817,0.0198393
715,90.1589,0.0169875
716,90.1689,0.0179245
717,90.1514,0.0173843
718,90.123,0.0152901
719,90.1413,0.0157905
720,90.1265,0.0166979
721,90.124,0.0180474
722,90.1165,0.01891
723,90.1044,0.0189586
724,90.0865,0.0142714
725,90.0676,0.0170763
726,90.0667,0.0191718
727,90.0526,0.0208893
728,90.0155,0.0159682
729,90.0164,0.0180956
730,89.9902,0.0179603
731,89.9585,0.0149969
732,89.9383,0.0142793
733,89.9169,0.0169125
734,89.8958,0.0190553
735,89.887,0.0170515
736,89.8824,0.0185264
737,89.8742,0.0203287
738,89.8676,0.0184385
739,89.8733,0.0177023
740,89.8833,0.018392
741,89.9014,0.0186331
742,89.9163,0.0186727
743,89.9016,0.02033
744,89.8962,0.0204797
745,89.8742,0.0203392
746,89.8372,0.0200722
747,89.7839,0.0194113
748,89.7616,0.0176258
749,89.7324,0.0174454
750,89.7262,0.0179893
751,89.7564,0.0181587
752,89.7787,0.0187196
753,89.8016,0.0200152
754,89.7703,0.0199368
755,89.7765,0.0188515
756,89.7196,0.0198963
757,89.6754,0.018819
758,89.6372,0.0212113
759,89.6567,0.0206919
760,89.6678,0.0184622
761,89.7195,0.0210162
762,89.7134,0.0193535
763,89.6782,0.0180244
764,89.627,0.0162085
765,89.5792,0.0197763
766,89.5888,0.0187529
767,89.6107,0.0193073
768,89.6142,0.0186277
769,89.6118,0.019956
770,89.5778,0.021512
771,89.5317,0.0191364
772,89.5326,0.0214007
773,89.5302,0.0180964
774,89.56,0.0186086
775,89.56,0.0160738
776,89.5027,0.0172911
777,89.4637,0.0191158
778,89.4664,0.0201466
779,89.4636,0.018814
780,89.4949,0.0208699
781,89.462,0.0207853
782,89.4119,0.0188682
783,89.3927,0.0196505
784,89.4275,0.0189698
785,89.4351,0.0154879
786,89.4076,0.0224429
787,89.3469,0.020695
788,89.3294,0.0209639
789,89.3549,0.0186152
790,89.375,0.017748
791,89.3379,0.0209337
792,89.2957,0.0203282
793,89.3028,0.0193396
794,89.3056,0.0198684
795,89.3119,0.0199558
796,89.2652,0.0187211
797,89.2383,0.0204921
798,89.2772,0.0192069
799,89.2749,0.0171991
800,89.2209,0.0174144
801,89.1965,0.0142766
802,89.2332,0.0166103
803,89.238,0.020515
804,89.1686,0.0197997
805,89.156,0.0184869
806,89.1767,0.0198649
807,89.1955,0.0174464
808,89.1405,0.0167353
809,89.1124,0.0189308
810,89.1757,0.0188712
811,89.1665,0.0180812
812,89.0947,0.0177212
813,89.0804,0.0202003
814,89.1208,0.0215334
815,89.1052,0.0237186
816,89.0408,0.022293
817,89.0653,0.0210832
818,89.1081,0.0199424
819,89.0308,0.022245
820,89.0101,0.0192366
821,89.0713,0.019044
822,89.0497,0.0197186
823,88.9884,0.0185604
824,89.0598,0.0203339
825,89.033,0.022579
826,88.9646,0.0189281
827,88.9857,0.0211295
828,89.0246,0.0176131
829,88.9695,0.020664
830,88.9757,0.0244635
831,89.018,0.0232932
832,88.9604,0.0212833
833,88.9159,0.0205937
834,88.9658,0.0201303
835,88.95,0.0221848
836,88.9172,0.0210974
837,88.9574,0.0228847
838,88.9166,0.0199512
839,88.8824,0.0174076
840,88.9301,0.0182389
841,88.8938,0.0216878
842,88.8676,0.0187035
843,88.9101,0.0203007
844,88.8498,0.0207938
845,88.8445,0.0233475
846,88.8642,0.0240242
847,88.8237,0.022517
848,88.8213,0.0189002
849,88.8428,0.018123
850,88.7905,0.0186974
851,88.7937,0.0255041
852,88.8023,0.0194441
853,88.7519,0.0189962
854,88.781,0.020422
855,88.7845,0.0235732
856,88.7681,0.0216698
857,88.7889,0.025153
858,88.741,0.0234668
859,88.7638,0.0225667
860,88.7612,0.0214026
861,88.7184,0.0193675
862,88.7257,0.0199969
863,88.7088,0.0191947
864,88.7101,0.0230922
865,88.716,0.0192875
866,88.7001,0.0198176
867,88.6932,0.0200431
868,88.6755,0.0181381
869,88.6764,0.0193486
870,88.6696,0.0173932
871,88.657,0.014686
872,88.6559,0.0155373
873,88.6631,0.0232978
874,88.6349,0.0197988
875,88.6544,0.0223023
876,88.6235,0.0226011
877,88.6235,0.0193683
878,88.6188,0.0208544
879,88.6164,0.0232281
880,88.6137,0.0154416
881,88.6067,0.0151129
882,88.6063,0.0198258
883,88.6137,0.0237911
884,88.5645,0.022264
885,88.5524,0.0195312
886,88.5591,0.0211904
887,88.5503,0.020151
888,88.5423,0.0214426
889,88.5512,0.0169602
890,88.5598,0.0191185
891,88.5276,0.0232999
892,88.5328,0.0217579
893,88.5314,0.0216103
894,88.5229,0.0225751
895,88.5152,0.0218139
896,88.4924,0.017743
897,88.5244,0.0186718
898,88.48,0.0171186
899,88.5126,0.0229542
900,88.4907,0.0243204
901,88.4778,0.0192984
902,88.4755,0.0247338
903,88.4745,0.0209461
904,88.4671,0.0210463
905,88.4644,0.0235508
906,88.4636,0.0224396
907,88.4829,0.0196138
908,88.4666,0.0206127
909,88.4544,0.0198708
910,88.4646,0.0195722
911,88.4399,0.0201863
912,88.4581,0.0241566
913,88.4363,0.0169913
914,88.4435,0.0207014
915,88.4334,0.0221102
916,88.4274,0.0186377
917,88.4056,0.0188852
918,88.438,0.0285689
919,88.4115,0.0265531
920,88.4401,0.024145
921,88.4099,0.0285822
922,88.4083,0.0226605
923,88.4082,0.02301
924,88.4201,0.0200261
925,88.3992,0.0190725
926,88.4194,0.0201914
927,88.3843,0.0198679
928,88.3959,0.0238858
929,88.3868,0.0275225
930,88.3829,0.0232201
931,88.4,0.0268004
932,88.3862,0.0236534
933,88.3757,0.0222381
934,88.4041,0.0219652
935,88.361,0.0179189
936,88.3876,0.0190175
937,88.3897,0.0249729
938,88.3524,0.0227949
939,88.3692,0.025803
940,88.3404,0.0256343
941,88.346,0.024133
942,88.3489,0.0215212
943,88.3554,0.0229462
944,88.3347,0.0225775
945,88.3784,0.022207
946,88.3339,0.0183138
947,88.3605,0.0245238
948,88.3708,0.0260446
949,88.3504,0.024825
950,88.3576,0.020899
951,88.3457,0.0222437
952,88.3314,0.0261872
953,88.3625,0.0241039
954,88.3554,0.02318
955,88.3626,0.0212402
956,88.3586,0.0199745
957,88.3365,0.0218716
958,88.3346,0.0227919
959,88.3212,0.0196298
960,88.3276,0.0158867
961,88.3171,0.0167655
962,88.3149,0.0203947
963,88.3451,0.0318978
964,88.3265,0.0280743
965,88.3491,0.0284788
966,88.3418,0.0248256
967,88.3169,0.0237368
968,88.3551,0.0233946
969,88.3123,0.0270164
970,88.311,0.0248002
971,88.3354,0.0192311
972,88.3227,0.0175709
973,88.3272,0.0304602
974,88.3346,0.0240056
975,88.3102,0.0223885
976,88.3243,0.0203276
977,88.3084,0.0231657
978,88.294,0.0212131
979,88.3027,0.0298381
980,88.3074,0.0273943
981,88.3527,0.0239312
982,88.3237,0.0282444
983,88.3036,0.0320364
984,88.326,0.0280822
985,88.3111,0.0241316
986,88.3291,0.0307815
987,88.343,0.0229192
988,88.3669,0.0278272
989,88.3027,0.026971
990,88.321,0.0192915
991,88.3728,0.0151739
992,88.3502,0.0286301
993,88.2875,0.0336824
994,88.3578,0.0370148
995,88.3341,0.0316404
996,88.3076,0.0231456
997,88.3455,0.0299545
998,88.364,0.0237253
999,88.3362,0.034568
1000,88.3577,0.0410015
1001,88.3794,0.0247122
1002,88.3522,0.029781
1003,88.3343,0.0260541
1004,88.3344,0.0241828
1005,88.4047,0.0300267
1006,88.272,0.0393954
1007,88.3739,0.0361038
1008,88.36,0.0398865
1009,88.4254,0.0293615
1010,88.3364,0.0353788
1011,88.3649,0.0275751
1012,88.3617,0.0284769
1013,88.4505,0.0358268
1014,88.3531,0.0445037
1015,88.4405,0.0423427
1016,88.4383,0.0394409
1017,88.3675,0.0334522
1018,88.3709,0.0308163
1019,88.4086,0.0369373
1020,88.4211,0.0358339
1021,88.4921,0.0385932
1022,88.3506,0.0410331
1023,88.5262,0.0525071
1024,88.3515,0.0387442
1025,88.3505,0.0378713
1026,88.395,0.0573772
1027,88.5256,0.0653409
1028,88.4546,0.0418773
1029,88.519,0.0308557
1030,88.4245,0.0336087
1031,88.3426,0.0504486
1032,88.4282,0.0676987
1033,88.4721,0.0704474
1034,88.5157,0.0807695
1035,88.5513,0.0674654
1036,88.4521,0.0660097
1037,88.5713,0.0553966
1038,88.4782,0.0624771
1039,88.5058,0.0760528
1040,88.4636,0.0933509
1041,88.4398,0.0959057
1042,88.4279,0.0952537
1043,88.5195,0.10155
1044,88.4639,0.103089
1045,88.4949,0.0834822
1046,88.4812,0.0869931
1047,88.5097,0.101318
1048,88.6628,0.0818761
1049,88.6592,0.0863363
1050,88.6434,0.0851471
1051,88.578,0.0725331
1052,88.5121,0.0654223
1053,88.4898,0.129671
1054,88.615,0.0894087
1055,88.5753,0.11214
1056,88.5996,0.120891
1057,88.4703,0.104648
1058,88.5407,0.112975
1059,88.6242,0.137838
1060,88.6056,0.145894
1061,88.7117,0.168775
1062,88.5484,0.136774
1063,88.5784,0.108937
1064,88.6357,0.130828
1065,88.7679,0.147061
1066,88.4852,0.136864
1067,88.5956,0.156744
1068,88.5684,0.185754
1069,88.4708,0.168446
1070,88.3993,0.171056
1071,88.5101,0.167445
1072,88.9833,0.154381
1073,88.2248,0.203883
1074,88.7883,0.183928
1075,88.7327,0.140925
1076,88.564,0.0989132
1077,88.5168,0.202372
1078,88.8342,0.279797
1079,88.3471,0.2423
1080,88.3227,0.183587
1081,88.3036,0.196875
1082,88.5214,0.20031
1083,88.3566,0.251282
1084,88.6375,0.302828
1085,88.7473,0.261233
1086,88.6615,0.250557
1087,88.5966,0.287114
1088,88.2636,0.235102
1089,88.8348,0.266203
1090,88.6347,0.242699
1091,88.6196,0.315015
1092,88.6076,0.249226
1093,88.7612,0.254958
1094,88.416,0.294189
1095,88.5098,0.334758
1096,89.001,0.375457
1097,88.8207,0.383927
1098,88.8207,0.318814
1099,88.5023,0.384536
1100,88.4769,0.287407