File: data-raw/photo-filters/KnightX-ND4-resin.csv
Wavelength (nm);Transmittance(%);Std.Dev.
190;0.0119018;0.0117348
191;0.0104577;0.0212541
192;0.01;0.0169039
193;0.0100245;0.0276818
194;0.01;0.0169369
195;0.01;0.014956
196;0.01;0.0109541
197;0.01;0.0157722
198;0.01;0.00889591
199;0.01;0.00503541
200;0.01;0.00599282
201;0.01;0.00930093
202;0.01;0.0146345
203;0.01;0.00859056
204;0.01;0.00391338
205;0.01;0.0144364
206;0.01;0.0308547
207;0.01;0.0257419
208;0.01;0.0126401
209;0.01;0.014901
210;0.01;0.00864338
211;0.01;0.00283393
212;0.01;0.00383665
213;0.01;0.00840275
214;0.01;0.0102955
215;0.01;0.0143001
216;0.01;0.0104611
217;0.01;0.0130482
218;0.01;0.00634909
219;0.01;0.00799966
220;0.01;0.0165816
221;0.01;0.0131461
222;0.01;0.020043
223;0.01;0.0247935
224;0.01;0.0278487
225;0.01;0.0144097
226;0.01;0.0160848
227;0.01;0.0167327
228;0.01;0.0161358
229;0.01;0.0235841
230;0.01;0.016605
231;0.01;0.00696391
232;0.01;0.0062132
233;0.01;0.0112175
234;0.01;0.0207482
235;0.01;0.00990252
236;0.01;0.0042559
237;0.01;0.0176076
238;0.01;0.0370992
239;0.01;0.0191149
240;0.01;0.00603955
241;0.01;0.00554832
242;0.01;0.012625
243;0.01;0.022774
244;0.01;0.0154815
245;0.01;0.0244551
246;0.0100608;0.016136
247;0.01;0.0189479
248;0.0112049;0.0100249
249;0.0173219;0.0090153
250;0.01;0.00469623
251;0.0111947;0.0028736
252;0.0155454;0.00420253
253;0.0147269;0.00241354
254;0.0191226;0.00203738
255;0.030886;0.00332803
256;0.0497864;0.00307425
257;0.0992689;0.00278569
258;0.132685;0.00238861
259;0.167433;0.00233661
260;0.223068;0.0028124
261;0.268283;0.00258452
262;0.318713;0.00266109
263;0.36459;0.00184193
264;0.423288;0.00263777
265;0.462132;0.003
266;0.497735;0.00238328
267;0.523142;0.00260581
268;0.532512;0.00201531
269;0.535472;0.00304578
270;0.518153;0.00466677
271;0.505893;0.00285853
272;0.48385;0.0032537
273;0.460116;0.00374158
274;0.41513;0.0027799
275;0.395137;0.00182724
276;0.348772;0.0016172
277;0.31233;0.00363238
278;0.279377;0.00329226
279;0.247211;0.00385722
280;0.211035;0.00540275
281;0.182732;0.00606905
282;0.163076;0.00426788
283;0.142661;0.00668808
284;0.1337;0.00641617
285;0.114478;0.00658163
286;0.0874838;0.00480652
287;0.0707602;0.00595505
288;0.0736276;0.00739633
289;0.0617022;0.00975687
290;0.0374335;0.00355441
291;0.0467422;0.00561834
292;0.0515369;0.00603015
293;0.0423767;0.00497252
294;0.0438714;0.00383286
295;0.0429194;0.00364682
296;0.0231784;0.00319579
297;0.0318498;0.00555675
298;0.0243005;0.00712095
299;0.0323859;0.0068551
300;0.0309871;0.00873483
301;0.0308305;0.00462294
302;0.0321164;0.00345504
303;0.0371273;0.00527296
304;0.0465087;0.00363059
305;0.053586;0.00328851
306;0.0593453;0.00684564
307;0.0704891;0.00625473
308;0.0649802;0.0033684
309;0.0755583;0.00214921
310;0.0838959;0.00276047
311;0.101608;0.00325217
312;0.103061;0.00338681
313;0.11453;0.00276649
314;0.111035;0.00276587
315;0.121052;0.00411378
316;0.119587;0.0033719
317;0.121204;0.00365954
318;0.107515;0.00273133
319;0.10026;0.00402551
320;0.0888393;0.00614817
321;0.092306;0.00452093
322;0.0865868;0.00464446
323;0.0715446;0.00379426
324;0.0751008;0.00605284
325;0.0581266;0.00541104
326;0.0497207;0.00351029
327;0.0535523;0.0029448
328;0.0552161;0.00497241
329;0.0440639;0.00702913
330;0.0459437;0.00654501
331;0.030352;0.00602159
332;0.0459562;0.00911382
333;0.0164349;0.00300219
334;0.0456231;0.00540384
335;0.0367496;0.0063553
336;0.0263871;0.00409183
337;0.0229394;0.00216932
338;0.0274833;0.00287418
339;0.0275214;0.00421921
340;0.0307833;0.00436428
341;0.0372409;0.00416447
342;0.0433618;0.00570628
343;0.0447604;0.00886697
344;0.0412958;0.00582636
345;0.0460164;0.00555175
346;0.0379637;0.00322404
347;0.0603932;0.00835908
348;0.0431951;0.00772285
349;0.0529462;0.00826259
350;0.0849378;0.0084332
351;0.0714817;0.00928288
352;0.0841773;0.00833704
353;0.090797;0.00826974
354;0.0895521;0.00679954
355;0.148833;0.00764581
356;0.139193;0.00853228
357;0.165496;0.00591984
358;0.180964;0.00582221
359;0.201974;0.00420168
360;0.260861;0.00393121
361;0.320453;0.00558665
362;0.390509;0.00954198
363;0.450171;0.0130461
364;0.581726;0.0102825
365;0.719499;0.00809208
366;0.882243;0.00679315
367;1.11888;0.00747207
368;1.34753;0.00828497
369;1.64987;0.00587136
370;2.03886;0.00847682
371;2.48073;0.0114192
372;2.99963;0.0141118
373;3.60924;0.0112063
374;4.2887;0.0082384
375;5.11105;0.00770697
376;5.94833;0.00669347
377;6.85578;0.00718979
378;7.77557;0.00671998
379;8.70734;0.00721878
380;9.67373;0.00579112
381;10.5839;0.00863225
382;11.3717;0.0074193
383;12.2718;0.00675268
384;13.1062;0.00419587
385;13.9106;0.00326582
386;14.6289;0.00475022
387;15.3055;0.00572134
388;15.9487;0.00843529
389;16.5141;0.00759375
390;17.0258;0.0060633
391;17.4957;0.0046869
392;17.9412;0.0040831
393;18.3307;0.00657204
394;18.6597;0.00983537
395;18.9751;0.00634651
396;19.2869;0.00676592
397;19.5195;0.00500545
398;19.7761;0.00582418
399;20.007;0.00857013
400;20.2054;0.00964624
401;20.4443;0.00911381
402;20.614;0.0107674
403;20.8074;0.00988644
404;21.0174;0.00929536
405;21.1931;0.00832087
406;21.3515;0.00581926
407;21.5145;0.00491871
408;21.6956;0.00811283
409;21.8601;0.0108964
410;21.9954;0.00908914
411;22.1418;0.00667585
412;22.2542;0.00621647
413;22.3921;0.00707229
414;22.4987;0.005172
415;22.6295;0.00694379
416;22.7537;0.00725494
417;22.8831;0.00648138
418;23.0338;0.00792354
419;23.1777;0.0094242
420;23.3286;0.00682195
421;23.5049;0.00476397
422;23.6785;0.00581088
423;23.8676;0.0108698
424;24.0411;0.0105766
425;24.2043;0.00717672
426;24.3761;0.00633498
427;24.5945;0.00812483
428;24.7681;0.00753397
429;24.947;0.00665397
430;25.1283;0.00806
431;25.2682;0.00771525
432;25.4338;0.0091731
433;25.6163;0.0106525
434;25.7388;0.00847503
435;25.8865;0.00604506
436;26.0084;0.00960761
437;26.1546;0.0118727
438;26.2758;0.0126766
439;26.3956;0.00760216
440;26.5315;0.00907096
441;26.652;0.0123079
442;26.7841;0.0132381
443;26.9025;0.00871741
444;27.0272;0.00811505
445;27.1821;0.00911161
446;27.3265;0.00987727
447;27.4609;0.0118216
448;27.596;0.00843125
449;27.7529;0.00709666
450;27.9016;0.00918225
451;28.0468;0.0126188
452;28.2125;0.00773536
453;28.3582;0.00641434
454;28.538;0.0118074
455;28.6874;0.0122994
456;28.8229;0.0129511
457;28.9503;0.0119493
458;29.1001;0.013585
459;29.2299;0.0108319
460;29.345;0.0120685
461;29.4373;0.0100349
462;29.544;0.00982461
463;29.6744;0.00639589
464;29.7694;0.00755934
465;29.8401;0.00906255
466;29.9453;0.0111422
467;30.0154;0.0140909
468;30.0793;0.0125883
469;30.1189;0.00845112
470;30.1886;0.00878358
471;30.2435;0.0109306
472;30.3023;0.00967529
473;30.3501;0.00865069
474;30.4268;0.0119097
475;30.4613;0.0112207
476;30.5015;0.00930716
477;30.5957;0.00823963
478;30.6268;0.00882668
479;30.6848;0.0114062
480;30.7291;0.00650985
481;30.7744;0.00580926
482;30.8076;0.00455866
483;30.88;0.006673
484;30.9064;0.0061957
485;30.9273;0.00462862
486;30.9495;0.0047384
487;30.9834;0.00586915
488;30.9988;0.00708656
489;31.0011;0.00967754
490;31.0109;0.00835517
491;31.0158;0.00724014
492;31.0123;0.00982841
493;30.9848;0.00805893
494;30.9548;0.00950787
495;30.9581;0.00645484
496;30.9341;0.00618057
497;30.9041;0.00554205
498;30.8838;0.00693223
499;30.8614;0.00695797
500;30.8492;0.0100576
501;30.8297;0.00675469
502;30.8092;0.00659048
503;30.8049;0.00657323
504;30.8102;0.00773997
505;30.8012;0.00707024
506;30.7729;0.00840945
507;30.781;0.00851088
508;30.7688;0.00626087
509;30.7607;0.00522002
510;30.7544;0.00592312
511;30.7493;0.00756347
512;30.7377;0.00820296
513;30.7158;0.00763772
514;30.6934;0.00595728
515;30.6744;0.00566531
516;30.628;0.00576977
517;30.5718;0.00592029
518;30.529;0.00585173
519;30.4772;0.00677055
520;30.3868;0.00691438
521;30.3224;0.00939421
522;30.2279;0.00697126
523;30.142;0.00972937
524;30.026;0.00702366
525;29.9257;0.00502081
526;29.815;0.00559558
527;29.7004;0.00619655
528;29.5958;0.00548366
529;29.4608;0.00456765
530;29.3411;0.00548663
531;29.2359;0.00614356
532;29.1236;0.00442167
533;28.9852;0.00428746
534;28.8737;0.00565881
535;28.7708;0.00588949
536;28.6683;0.00564598
537;28.5746;0.00464861
538;28.4795;0.00507883
539;28.4034;0.00332805
540;28.3218;0.00334576
541;28.2403;0.00398468
542;28.1833;0.00361662
543;28.1183;0.00393618
544;28.0673;0.0042843
545;28.0179;0.00307148
546;27.9667;0.00316193
547;27.9288;0.00374084
548;27.8864;0.00362356
549;27.8545;0.00483067
550;27.8136;0.00558723
551;27.7829;0.00431118
552;27.7468;0.00449229
553;27.6949;0.00415932
554;27.6413;0.00390301
555;27.5918;0.0037308
556;27.5266;0.00475944
557;27.4601;0.00387096
558;27.3864;0.00529438
559;27.2922;0.00674369
560;27.1988;0.00579437
561;27.0973;0.00423552
562;26.9863;0.00431275
563;26.8535;0.00459412
564;26.7089;0.00385155
565;26.5685;0.00431613
566;26.4184;0.00273522
567;26.2636;0.00290174
568;26.0903;0.00411128
569;25.917;0.0029189
570;25.7426;0.00267967
571;25.5616;0.00303186
572;25.3849;0.00397724
573;25.1983;0.0036834
574;25.0324;0.0032198
575;24.871;0.00426537
576;24.7114;0.00406855
577;24.5447;0.00467751
578;24.4234;0.00380038
579;24.2907;0.00455366
580;24.2076;0.00474746
581;24.0829;0.00255073
582;24.0222;0.00240153
583;23.9832;0.00237158
584;23.9473;0.00466567
585;23.9447;0.00406769
586;23.968;0.0031307
587;24.0182;0.00339532
588;24.0838;0.00364884
589;24.1801;0.00409488
590;24.297;0.00531925
591;24.4243;0.00311151
592;24.5725;0.00313161
593;24.7293;0.00452873
594;24.8977;0.00337289
595;25.0853;0.00502319
596;25.2547;0.00557171
597;25.4461;0.00360019
598;25.6273;0.00344736
599;25.8076;0.00299548
600;25.9828;0.00302599
601;26.1524;0.00390693
602;26.2999;0.0067916
603;26.4445;0.00522661
604;26.5713;0.00429792
605;26.6697;0.00516364
606;26.7608;0.00504896
607;26.8248;0.00485404
608;26.8845;0.00405398
609;26.9068;0.00344282
610;26.9212;0.00466825
611;26.9017;0.0033115
612;26.8704;0.00381212
613;26.8258;0.00329965
614;26.7603;0.00394744
615;26.6822;0.00355429
616;26.5907;0.00338409
617;26.4896;0.00445467
618;26.3774;0.00416549
619;26.2478;0.00548319
620;26.1213;0.0075561
621;25.995;0.00440418
622;25.893;0.0051524
623;25.8389;0.00475737
624;25.7741;0.00372869
625;25.6946;0.00482451
626;25.6112;0.00510841
627;25.5526;0.00512782
628;25.5039;0.00437793
629;25.4671;0.00498529
630;25.4741;0.00610363
631;25.5162;0.00453457
632;25.6343;0.00451239
633;25.7717;0.00399197
634;25.9586;0.0036726
635;26.182;0.00360804
636;26.4505;0.00484462
637;26.7575;0.00349445
638;27.1115;0.0036621
639;27.5013;0.00473719
640;27.9525;0.00498807
641;28.364;0.00615441
642;28.8882;0.00506029
643;29.4126;0.0054318
644;29.9783;0.00690116
645;30.5287;0.00579562
646;31.0824;0.00502168
647;31.6617;0.00631314
648;32.2485;0.00528889
649;32.852;0.00623534
650;33.4511;0.00618556
651;34.0549;0.00706519
652;34.6554;0.00585652
653;35.2706;0.00617136
654;35.8654;0.00323792
655;36.4845;0.00290845
656;37.0471;0.00392719
657;37.4474;0.00458131
658;38.1047;0.00676823
659;38.661;0.00519673
660;39.1836;0.004072
661;39.6686;0.00732415
662;40.1558;0.00620721
663;40.6019;0.00665098
664;41.0222;0.00629313
665;41.4265;0.00508462
666;41.8013;0.00482717
667;42.1753;0.00485834
668;42.5307;0.00577656
669;42.812;0.00640315
670;43.1896;0.00640333
671;43.4175;0.00540952
672;43.691;0.00667416
673;43.9503;0.00701484
674;44.1737;0.00611188
675;44.3915;0.00481886
676;44.598;0.00401893
677;44.7945;0.00325665
678;44.9661;0.00597307
679;45.1419;0.00631391
680;45.3107;0.00668975
681;45.465;0.00685051
682;45.6134;0.00438636
683;45.7454;0.00333108
684;45.8803;0.00442358
685;46.0136;0.00546037
686;46.1313;0.00677446
687;46.2688;0.005964
688;46.3824;0.0043529
689;46.4904;0.00411376
690;46.617;0.00616172
691;46.7116;0.00758291
692;46.8314;0.00536989
693;46.94;0.00508546
694;47.0471;0.00422268
695;47.1611;0.0048191
696;47.2737;0.00382714
697;47.3709;0.00386461
698;47.4902;0.0039184
699;47.5863;0.00518294
700;47.693;0.00632987
701;47.7861;0.00567895
702;47.8942;0.0052624
703;47.9882;0.0035846
704;48.0816;0.00634906
705;48.1778;0.00691599
706;48.2524;0.00602997
707;48.3366;0.00664317
708;48.429;0.00604034
709;48.495;0.00407562
710;48.5745;0.00461305
711;48.6441;0.00551887
712;48.7066;0.0032022
713;48.7819;0.00346336
714;48.8384;0.00471802
715;48.8873;0.00646759
716;48.9494;0.00651107
717;48.9954;0.00509379
718;49.0381;0.00535245
719;49.0913;0.0051218
720;49.1216;0.00736483
721;49.1609;0.00468097
722;49.1881;0.00548797
723;49.2133;0.00645284
724;49.2476;0.0058232
725;49.2688;0.00499567
726;49.3004;0.00556616
727;49.3277;0.00757133
728;49.3529;0.00511031
729;49.3715;0.00523268
730;49.3967;0.00450489
731;49.4275;0.00524914
732;49.4503;0.00497468
733;49.4802;0.0051462
734;49.5133;0.0052539
735;49.5437;0.005849
736;49.5785;0.00470084
737;49.6085;0.0043273
738;49.6546;0.00577987
739;49.7055;0.00652936
740;49.7399;0.00562215
741;49.7793;0.00507135
742;49.8309;0.00557206
743;49.883;0.00609727
744;49.9351;0.00507747
745;49.9799;0.00490333
746;50.0519;0.00494075
747;50.1062;0.00498557
748;50.1725;0.00701786
749;50.2452;0.00690382
750;50.3253;0.00804982
751;50.3952;0.0076957
752;50.4632;0.00593056
753;50.5296;0.00410688
754;50.6086;0.00548334
755;50.6786;0.00685889
756;50.7508;0.00751693
757;50.8393;0.00587179
758;50.9323;0.0065832
759;51.0043;0.00657417
760;51.0857;0.00549711
761;51.1581;0.0056727
762;51.2242;0.00560279
763;51.306;0.00467732
764;51.3753;0.00407672
765;51.4647;0.00386169
766;51.5369;0.00472767
767;51.6025;0.0066638
768;51.6684;0.00566517
769;51.7288;0.00677542
770;51.7779;0.00576417
771;51.842;0.00597827
772;51.8998;0.00601524
773;51.9557;0.0054555
774;51.997;0.00514528
775;52.0254;0.00504946
776;52.0689;0.00616145
777;52.1179;0.00824452
778;52.152;0.00789949
779;52.1973;0.00625643
780;52.2034;0.00718594
781;52.2301;0.00636624
782;52.2527;0.00651031
783;52.2775;0.00777977
784;52.2871;0.00592579
785;52.2973;0.00649864
786;52.313;0.00789405
787;52.3411;0.00623432
788;52.348;0.00871343
789;52.3517;0.00925
790;52.3485;0.00890625
791;52.3524;0.00716553
792;52.3717;0.00814338
793;52.379;0.00610243
794;52.3926;0.00603751
795;52.378;0.00464747
796;52.3867;0.00514894
797;52.4034;0.00577664
798;52.4174;0.00582088
799;52.4015;0.00571348
800;52.4165;0.00492844
801;52.4502;0.00607821
802;52.4677;0.00703435
803;52.4728;0.00492733
804;52.4862;0.00552369
805;52.523;0.00696078
806;52.5478;0.00559376
807;52.5748;0.00515218
808;52.5898;0.00512119
809;52.6344;0.006476
810;52.6596;0.00619274
811;52.6888;0.00608224
812;52.7325;0.00553374
813;52.7843;0.00689554
814;52.8174;0.00697995
815;52.8611;0.00640842
816;52.9329;0.00618268
817;52.9788;0.00707734
818;53.0354;0.00715917
819;53.0898;0.00691226
820;53.1552;0.00591103
821;53.2219;0.00689315
822;53.2683;0.00577803
823;53.3347;0.00679137
824;53.4071;0.00699671
825;53.4684;0.00773361
826;53.542;0.00677925
827;53.6089;0.00637841
828;53.6693;0.00558748
829;53.7297;0.00568249
830;53.8019;0.00686827
831;53.8638;0.00670531
832;53.9419;0.00554736
833;54.0023;0.00617608
834;54.0678;0.00652547
835;54.1485;0.00566972
836;54.2119;0.0072384
837;54.2616;0.00753407
838;54.3196;0.00708934
839;54.3933;0.00546411
840;54.4438;0.00656228
841;54.4799;0.0094224
842;54.5404;0.00710328
843;54.5932;0.00479285
844;54.6458;0.00741998
845;54.6987;0.00696479
846;54.7239;0.0065645
847;54.7656;0.00878521
848;54.8144;0.00826165
849;54.8385;0.00717919
850;54.8606;0.00729996
851;54.8964;0.00640806
852;54.9086;0.00806116
853;54.951;0.00759776
854;54.9691;0.00741751
855;54.9683;0.00816461
856;54.9817;0.00789016
857;54.9952;0.00974012
858;55.0008;0.00882624
859;55.0022;0.00896504
860;55.0238;0.00928409
861;55.0261;0.00659397
862;55.0235;0.00444203
863;55.0209;0.0109093
864;55.0197;0.00983764
865;55.0045;0.00724662
866;55.0144;0.00660998
867;55.0096;0.00697776
868;54.9988;0.00788592
869;54.9982;0.00777101
870;54.9915;0.00934793
871;54.9815;0.00723074
872;54.964;0.00631136
873;54.9685;0.00698103
874;54.9524;0.0092181
875;54.9366;0.0088762
876;54.9362;0.00819166
877;54.9325;0.00896302
878;54.9309;0.00889349
879;54.9179;0.00725403
880;54.8951;0.00863561
881;54.8855;0.00843947
882;54.865;0.00900433
883;54.8477;0.00682607
884;54.8303;0.00661859
885;54.8224;0.00849016
886;54.7919;0.00645445
887;54.8075;0.0075295
888;54.7824;0.0100286
889;54.8014;0.00738666
890;54.8144;0.00614879
891;54.8163;0.00721253
892;54.835;0.00648291
893;54.875;0.0104517
894;54.8874;0.00803458
895;54.9134;0.00632067
896;54.9472;0.00623078
897;54.9944;0.00705973
898;55.0331;0.00595307
899;55.0835;0.00635883
900;55.1357;0.006822
901;55.2012;0.00789053
902;55.2664;0.00680917
903;55.337;0.00833755
904;55.4079;0.0091162
905;55.5;0.00902768
906;55.5764;0.00734544
907;55.6541;0.00499669
908;55.7247;0.00943474
909;55.8253;0.00789764
910;55.8948;0.00929144
911;55.9784;0.00842029
912;56.0659;0.00644804
913;56.1646;0.00857451
914;56.2176;0.0110658
915;56.3051;0.0093173
916;56.4053;0.00790641
917;56.4622;0.00662747
918;56.564;0.013773
919;56.6166;0.0113006
920;56.6697;0.00824421
921;56.77;0.00605494
922;56.8386;0.00637829
923;56.8949;0.00825314
924;56.9634;0.00774453
925;57.0218;0.00708891
926;57.0736;0.00760475
927;57.1268;0.00882678
928;57.191;0.0092692
929;57.2246;0.00885773
930;57.3053;0.0117188
931;57.3391;0.0120442
932;57.3729;0.0123919
933;57.4285;0.00875998
934;57.4703;0.0145847
935;57.5155;0.00953309
936;57.546;0.00813542
937;57.5776;0.0102701
938;57.6036;0.0141202
939;57.6432;0.00837844
940;57.666;0.0109873
941;57.6999;0.0102107
942;57.7014;0.00978872
943;57.7263;0.00995607
944;57.7298;0.0113918
945;57.7556;0.00989469
946;57.787;0.0110568
947;57.7864;0.0115536
948;57.7692;0.011477
949;57.792;0.0158785
950;57.7878;0.0111496
951;57.7872;0.0106193
952;57.7946;0.0094022
953;57.7762;0.0102118
954;57.7866;0.0103444
955;57.7763;0.00928617
956;57.7803;0.0085029
957;57.7831;0.00986622
958;57.7342;0.0111796
959;57.7707;0.0146205
960;57.7506;0.00907418
961;57.7392;0.00981542
962;57.7648;0.00893369
963;57.7121;0.0105691
964;57.7414;0.0147672
965;57.7174;0.0123289
966;57.695;0.0112445
967;57.7232;0.0117486
968;57.6981;0.0144652
969;57.6782;0.0133233
970;57.6741;0.0105169
971;57.6672;0.00864607
972;57.6567;0.00922576
973;57.6507;0.0154427
974;57.6636;0.0135162
975;57.6526;0.0131917
976;57.6293;0.0105697
977;57.6542;0.0122649
978;57.6589;0.0131389
979;57.6667;0.015038
980;57.6616;0.0131922
981;57.6166;0.014468
982;57.6434;0.0168451
983;57.6813;0.0150079
984;57.6523;0.0163515
985;57.6593;0.0182048
986;57.686;0.0109206
987;57.7252;0.0150634
988;57.7455;0.0144418
989;57.7649;0.0155903
990;57.7844;0.0193231
991;57.7761;0.0244082
992;57.7814;0.0205504
993;57.8165;0.0258762
994;57.8297;0.0173064
995;57.8151;0.0169349
996;57.9062;0.0157125
997;57.9086;0.0184333
998;57.9307;0.019545
999;57.9728;0.0248623
1000;57.9725;0.0244269
1001;58.0026;0.0291271
1002;58.0863;0.0223253
1003;58.1035;0.0177901
1004;58.1201;0.023527
1005;58.1956;0.0388439
1006;58.2373;0.0261735
1007;58.3135;0.0297339
1008;58.3847;0.025976
1009;58.4483;0.0224377
1010;58.4603;0.0364365
1011;58.5369;0.0282471
1012;58.5608;0.0269423
1013;58.7052;0.024082
1014;58.6536;0.02959
1015;58.7915;0.0233405
1016;58.8586;0.0369732
1017;58.9215;0.0407895
1018;58.9461;0.0344439
1019;59.0356;0.0383393
1020;58.9803;0.0421896
1021;59.1199;0.036366
1022;59.1556;0.0389442
1023;59.1975;0.034173
1024;59.2481;0.0332379
1025;59.3165;0.0348741
1026;59.356;0.0461016
1027;59.4381;0.0642588
1028;59.4413;0.0325353
1029;59.4448;0.0321022
1030;59.5158;0.0437089
1031;59.5333;0.0561428
1032;59.6311;0.0359391
1033;59.6325;0.0487168
1034;59.7139;0.0417864
1035;59.7813;0.0490539
1036;59.6966;0.0506064
1037;59.8551;0.0404356
1038;59.9772;0.0592924
1039;59.9883;0.0499475
1040;59.9824;0.0588204
1041;60.1365;0.0459846
1042;60.0656;0.0399111
1043;60.0927;0.0790131
1044;60.2377;0.103093
1045;60.1978;0.0783489
1046;60.3375;0.0627019
1047;60.1657;0.0730176
1048;60.4045;0.0835867
1049;60.3085;0.0835127
1050;60.5113;0.102723
1051;60.3902;0.116116
1052;60.1924;0.0893144
1053;60.258;0.0939107
1054;60.2702;0.104646
1055;60.3236;0.0930779
1056;60.2192;0.118529
1057;60.5418;0.0998584
1058;60.3001;0.116049
1059;60.4956;0.0839452
1060;60.5723;0.0875359
1061;60.5065;0.131433
1062;60.4223;0.120927
1063;60.2948;0.130008
1064;60.3729;0.136058
1065;60.3211;0.111032
1066;60.5753;0.130305
1067;60.5671;0.169927
1068;60.7188;0.141147
1069;60.4122;0.125711
1070;60.4243;0.121461
1071;60.4295;0.110351
1072;60.516;0.161781
1073;60.1226;0.168981
1074;60.7095;0.136729
1075;60.6351;0.177108
1076;60.0039;0.203478
1077;60.5135;0.13407
1078;60.177;0.164393
1079;60.325;0.157079
1080;60.2861;0.14753
1081;60.2551;0.268985
1082;60.0697;0.202732
1083;60.5174;0.2227
1084;60.2518;0.209458
1085;60.3578;0.220777
1086;60.349;0.186855
1087;60.3023;0.166487
1088;59.9422;0.171494
1089;60.3645;0.276448
1090;59.9154;0.266027
1091;59.6307;0.245347
1092;59.9895;0.283548
1093;60.3517;0.288504
1094;59.9767;0.299594
1095;59.478;0.314296
1096;59.8129;0.282244
1097;59.9538;0.22759
1098;60.0508;0.160117
1099;59.1387;0.287506
1100;59.6777;0.30429