File: data-raw/photo-filters/KnightX-ND16-resin.CSV
Wavelength (nm);Transmittance(%);Std.Dev.
190;0.01;0.00455733
191;0.0150202;0.00499866
192;0.010898;0.00757294
193;0.01;0.007713
194;0.0100454;0.00495956
195;0.01;0.00551779
196;0.0100185;0.0122875
197;0.01;0.0224934
198;0.0111301;0.0120749
199;0.0100139;0.0140538
200;0.01;0.0372984
201;0.01;0.0455622
202;0.01;0.031944
203;0.01;0.0121099
204;0.01;0.0192503
205;0.01;0.0404132
206;0.01;0.024662
207;0.01;0.0302086
208;0.01;0.02231
209;0.01;0.0168199
210;0.01;0.0091324
211;0.01;0.00914435
212;0.01;0.00634654
213;0.01;0.00733396
214;0.01;0.0128259
215;0.01;0.0071451
216;0.01;0.00858868
217;0.01;0.013416
218;0.01;0.00733093
219;0.01;0.00830835
220;0.01;0.013741
221;0.01;0.0246967
222;0.01;0.0141694
223;0.01;0.0161608
224;0.01;0.0104394
225;0.01;0.00504795
226;0.01;0.00571026
227;0.01;0.00829641
228;0.01;0.0163155
229;0.01;0.0201906
230;0.01;0.0178843
231;0.01;0.0222468
232;0.01;0.0350227
233;0.01;0.019527
234;0.01;0.00672049
235;0.01;0.00685192
236;0.01;0.0105309
237;0.01;0.0161526
238;0.01;0.0371088
239;0.01;0.0479709
240;0.01;0.024357
241;0.01;0.0119074
242;0.01;0.00868819
243;0.01;0.0164562
244;0.01;0.0144498
245;0.01;0.0190433
246;0.01;0.0115526
247;0.01;0.0157023
248;0.01;0.00993556
249;0.01;0.00540671
250;0.01;0.00754746
251;0.0100178;0.0102618
252;0.01;0.0177312
253;0.0103333;0.00889076
254;0.0107214;0.00652317
255;0.01;0.00808866
256;0.0100328;0.0160083
257;0.01;0.0235167
258;0.01;0.0111092
259;0.01;0.00553061
260;0.01;0.0163853
261;0.01;0.0274584
262;0.01;0.0156894
263;0.01;0.0140424
264;0.01;0.0294256
265;0.01;0.0306246
266;0.01;0.0151924
267;0.01;0.00671687
268;0.01;0.00583343
269;0.01;0.0113004
270;0.01;0.0172638
271;0.01;0.0120918
272;0.01;0.0214046
273;0.01;0.0270798
274;0.01;0.0159895
275;0.01;0.0223426
276;0.01;0.0145082
277;0.01;0.022576
278;0.01;0.0102114
279;0.01;0.00873392
280;0.0100185;0.0119617
281;0.01;0.00642728
282;0.0104453;0.00258272
283;0.0140481;0.0107047
284;0.0113358;0.0200147
285;0.01;0.0200183
286;0.010038;0.014231
287;0.01;0.0114998
288;0.01;0.0211181
289;0.01;0.0215924
290;0.01;0.014387
291;0.01;0.0192019
292;0.01;0.0272798
293;0.0101041;0.0163232
294;0.01;0.0172849
295;0.0125185;0.0123226
296;0.0105985;0.00995209
297;0.0153041;0.0159908
298;0.013094;0.0247985
299;0.01;0.00996096
300;0.0188689;0.0107113
301;0.0118184;0.0144908
302;0.01;0.0142019
303;0.01;0.00895279
304;0.0210016;0.00839391
305;0.010351;0.00454199
306;0.0159642;0.0185931
307;0.010072;0.0246605
308;0.0134493;0.0218935
309;0.01;0.0091171
310;0.010044;0.0101684
311;0.01;0.0189521
312;0.0100083;0.0102127
313;0.0100498;0.0108477
314;0.01;0.00908955
315;0.0100018;0.0133531
316;0.01;0.0096608
317;0.01;0.00517731
318;0.01;0.00362468
319;0.01;0.00756246
320;0.01;0.014259
321;0.01;0.00879876
322;0.01;0.00873902
323;0.01;0.00596101
324;0.01;0.00918319
325;0.0101165;0.0166533
326;0.01;0.0162542
327;0.0131134;0.0094002
328;0.0108109;0.0036815
329;0.01;0.00533061
330;0.0100331;0.00801052
331;0.0100133;0.00801242
332;0.010449;0.0042881
333;0.0137112;0.0186122
334;0.01;0.0101241
335;0.01;0.00769015
336;0.0102371;0.00497241
337;0.0127955;0.00720787
338;0.0101794;0.0038948
339;0.0148915;0.00771966
340;0.0130483;0.0104954
341;0.01;0.00704418
342;0.0101087;0.0120954
343;0.01;0.0125591
344;0.01;0.0130928
345;0.01;0.00906191
346;0.0104407;0.0111931
347;0.01;0.00633409
348;0.0256693;0.0110619
349;0.0138482;0.0114294
350;0.0165929;0.010395
351;0.0119011;0.0113252
352;0.01;0.00691435
353;0.0106572;0.00928641
354;0.0101513;0.0152663
355;0.01;0.0125314
356;0.0231556;0.025419
357;0.01;0.00583603
358;0.0282404;0.00911889
359;0.0339554;0.0239193
360;0.0111613;0.0096212
361;0.0106932;0.00746104
362;0.012933;0.00688142
363;0.0150558;0.00814826
364;0.0163664;0.00781153
365;0.0155434;0.00557709
366;0.0261267;0.0189281
367;0.011312;0.0152327
368;0.0193733;0.0133755
369;0.0181226;0.0153062
370;0.01;0.012065
371;0.0402153;0.0221619
372;0.0489441;0.0124181
373;0.0243254;0.00913074
374;0.0359014;0.00794078
375;0.0627966;0.00750634
376;0.0560831;0.00480842
377;0.0932979;0.00877668
378;0.0810531;0.00708903
379;0.104482;0.0080587
380;0.108584;0.00530172
381;0.121485;0.00577673
382;0.135468;0.0096108
383;0.121116;0.0108752
384;0.149991;0.0078798
385;0.159964;0.00459101
386;0.162145;0.00699311
387;0.18326;0.00418692
388;0.206251;0.00344346
389;0.207854;0.00491405
390;0.222224;0.00599181
391;0.216897;0.00469547
392;0.235498;0.00660191
393;0.239533;0.00825754
394;0.248637;0.00519783
395;0.240234;0.00725392
396;0.261877;0.00761473
397;0.256628;0.0064223
398;0.278881;0.00645017
399;0.282184;0.00797349
400;0.291122;0.00746653
401;0.277108;0.00729957
402;0.297726;0.00564387
403;0.320913;0.00535882
404;0.317434;0.00590158
405;0.314369;0.0060636
406;0.321991;0.00698396
407;0.341827;0.00768953
408;0.347524;0.00685875
409;0.351278;0.0102527
410;0.360973;0.00804669
411;0.377494;0.0045269
412;0.380008;0.0070041
413;0.410092;0.00657544
414;0.416948;0.00815008
415;0.438788;0.00601305
416;0.432877;0.00555609
417;0.453568;0.00522204
418;0.472739;0.00402451
419;0.488953;0.00270942
420;0.49956;0.00412324
421;0.526769;0.00755882
422;0.555497;0.00627568
423;0.540847;0.00471001
424;0.547816;0.00657133
425;0.579409;0.0106551
426;0.58623;0.00641608
427;0.608639;0.00807976
428;0.629068;0.0112735
429;0.655668;0.00867746
430;0.681109;0.00639335
431;0.716243;0.00602552
432;0.704305;0.00434035
433;0.735403;0.00687955
434;0.731757;0.00553537
435;0.758926;0.00538612
436;0.779176;0.00905714
437;0.817155;0.00749975
438;0.835975;0.00517684
439;0.859699;0.00716902
440;0.854889;0.00787499
441;0.886113;0.00768633
442;0.909918;0.00784137
443;0.917378;0.0043892
444;0.942179;0.00676893
445;0.96058;0.00726394
446;0.974141;0.0071909
447;1.00349;0.00871249
448;1.02869;0.00749715
449;1.02627;0.0066179
450;1.03209;0.00844915
451;1.07687;0.00821946
452;1.09366;0.00666785
453;1.09549;0.00562268
454;1.12055;0.00726802
455;1.1478;0.00912879
456;1.1434;0.00723838
457;1.1808;0.00969039
458;1.16;0.00866301
459;1.2039;0.0110874
460;1.20108;0.00746966
461;1.2213;0.00782566
462;1.24447;0.0098847
463;1.26627;0.00841013
464;1.27233;0.0070996
465;1.28607;0.00688219
466;1.32207;0.00533556
467;1.31577;0.00567349
468;1.32589;0.00710564
469;1.33944;0.0078237
470;1.34731;0.0066717
471;1.38645;0.00673676
472;1.36782;0.00544616
473;1.37058;0.00642356
474;1.40051;0.00609257
475;1.40258;0.0104365
476;1.4119;0.00768022
477;1.42329;0.00569936
478;1.42333;0.00626989
479;1.44342;0.00877982
480;1.4289;0.00827362
481;1.44548;0.00556906
482;1.44493;0.0033958
483;1.44103;0.00416284
484;1.44982;0.0068062
485;1.43202;0.00400103
486;1.44446;0.00290965
487;1.43619;0.00307848
488;1.44159;0.00440851
489;1.43413;0.00483407
490;1.43982;0.00356445
491;1.42509;0.00458298
492;1.43061;0.00533486
493;1.41491;0.00789519
494;1.40618;0.00563421
495;1.41902;0.00375443
496;1.40241;0.00202662
497;1.39857;0.00299158
498;1.37332;0.0039605
499;1.37283;0.00518039
500;1.36705;0.00654949
501;1.35466;0.00597008
502;1.34942;0.00458225
503;1.34656;0.00251378
504;1.34119;0.0029153
505;1.32882;0.00589568
506;1.31636;0.00583758
507;1.30574;0.00902153
508;1.30165;0.00599958
509;1.29397;0.00714927
510;1.29422;0.00626193
511;1.27068;0.00520174
512;1.26394;0.00667617
513;1.25777;0.00519214
514;1.26687;0.00549392
515;1.23518;0.00686106
516;1.23594;0.00360368
517;1.21448;0.00270679
518;1.21255;0.00391828
519;1.20131;0.00520497
520;1.19;0.00371569
521;1.16524;0.00483831
522;1.16926;0.00310342
523;1.15356;0.00294358
524;1.1198;0.00291064
525;1.11904;0.00396479
526;1.09871;0.00293006
527;1.08057;0.0042779
528;1.0556;0.00562763
529;1.04117;0.00402135
530;1.03019;0.00517076
531;1.00669;0.00512395
532;0.989543;0.00573449
533;0.966483;0.00523468
534;0.953343;0.00631776
535;0.941601;0.0041068
536;0.920165;0.00276045
537;0.902922;0.00264761
538;0.894642;0.00312509
539;0.871668;0.00295661
540;0.860432;0.00367937
541;0.83982;0.00246033
542;0.834931;0.00292322
543;0.822099;0.00538517
544;0.819487;0.00567481
545;0.803918;0.00462388
546;0.791589;0.00389679
547;0.796396;0.00351717
548;0.781474;0.00357835
549;0.789716;0.00522355
550;0.772694;0.00472475
551;0.750167;0.00442811
552;0.761463;0.00324372
553;0.746588;0.00463215
554;0.744417;0.00412857
555;0.728346;0.00310955
556;0.722729;0.00462833
557;0.722367;0.00483316
558;0.71238;0.00380823
559;0.713216;0.00235944
560;0.70167;0.0019236
561;0.688051;0.00365514
562;0.674915;0.00390846
563;0.66626;0.00340717
564;0.64646;0.00390197
565;0.632673;0.00496115
566;0.619534;0.00408747
567;0.611706;0.00444143
568;0.596347;0.00327697
569;0.581918;0.00383297
570;0.565177;0.00342623
571;0.550603;0.0039506
572;0.536284;0.00207435
573;0.517716;0.00157806
574;0.515826;0.00315206
575;0.501173;0.00404614
576;0.484645;0.00264403
577;0.474852;0.00268297
578;0.464005;0.00200241
579;0.458829;0.001725
580;0.453205;0.00134963
581;0.450793;0.00312584
582;0.446752;0.00329335
583;0.444457;0.00273135
584;0.441522;0.00371872
585;0.447727;0.00363764
586;0.444293;0.00232952
587;0.449558;0.00299148
588;0.456172;0.00294704
589;0.46184;0.00230138
590;0.477464;0.00396443
591;0.487431;0.00166543
592;0.492891;0.0029657
593;0.513077;0.00358311
594;0.516791;0.00287843
595;0.5322;0.00299511
596;0.561598;0.00287506
597;0.567947;0.00193555
598;0.586489;0.00301582
599;0.605997;0.00351194
600;0.630339;0.00222385
601;0.633369;0.00205225
602;0.656016;0.00360529
603;0.661458;0.00353822
604;0.690332;0.00376063
605;0.708942;0.0040512
606;0.714266;0.00309149
607;0.71853;0.00235385
608;0.744718;0.00143565
609;0.743477;0.00184598
610;0.746992;0.00166438
611;0.755899;0.00186717
612;0.753692;0.00229161
613;0.750826;0.00289862
614;0.750627;0.00305751
615;0.753675;0.00200647
616;0.754074;0.00142331
617;0.745483;0.00149981
618;0.748784;0.00225189
619;0.746918;0.00255708
620;0.735944;0.00259507
621;0.746686;0.00270203
622;0.740618;0.00404086
623;0.738698;0.00484581
624;0.73383;0.00337637
625;0.734569;0.00423957
626;0.724126;0.00223343
627;0.724937;0.00168889
628;0.738467;0.00200094
629;0.74342;0.00311462
630;0.750039;0.0026827
631;0.764542;0.00203593
632;0.778952;0.00105913
633;0.80191;0.00183618
634;0.828054;0.00250482
635;0.858655;0.00315568
636;0.891279;0.00245671
637;0.922595;0.0030871
638;0.974897;0.00301166
639;1.03342;0.00266617
640;1.09615;0.0040635
641;1.15428;0.00435208
642;1.2274;0.0051403
643;1.31021;0.00385999
644;1.41293;0.00581046
645;1.47865;0.00695067
646;1.59668;0.00419496
647;1.69247;0.00463327
648;1.80296;0.00577982
649;1.91703;0.00475001
650;2.0439;0.00627932
651;2.1645;0.00500048
652;2.3035;0.00448985
653;2.43267;0.00356162
654;2.58423;0.00392948
655;2.74911;0.00244067
656;2.91156;0.00225941
657;2.99167;0.00260137
658;3.17677;0.00306947
659;3.35513;0.00405632
660;3.52533;0.00621995
661;3.66944;0.00385657
662;3.82121;0.00356548
663;3.98433;0.00492377
664;4.13468;0.00738205
665;4.27818;0.00693986
666;4.43911;0.00381601
667;4.58669;0.00474569
668;4.74459;0.00357634
669;4.86587;0.00233291
670;5.01896;0.00543023
671;5.155;0.00454696
672;5.27968;0.00388354
673;5.40774;0.00415304
674;5.53636;0.00338849
675;5.6503;0.0023148
676;5.77208;0.0035413
677;5.88684;0.00375284
678;5.9892;0.00288591
679;6.09091;0.0027781
680;6.20304;0.00395188
681;6.30027;0.00359056
682;6.3932;0.00319231
683;6.48428;0.00258749
684;6.58337;0.00314349
685;6.66737;0.00360382
686;6.75067;0.00320964
687;6.829;0.00255032
688;6.90811;0.00367832
689;6.98435;0.00243207
690;7.06197;0.00300333
691;7.12353;0.00354036
692;7.19638;0.00335575
693;7.27032;0.0027764
694;7.31853;0.00363252
695;7.39772;0.00603064
696;7.45332;0.00430844
697;7.51539;0.00332128
698;7.5769;0.00404627
699;7.6308;0.003869
700;7.69003;0.00250697
701;7.74774;0.00169768
702;7.80276;0.0019232
703;7.8463;0.00249731
704;7.90252;0.00318327
705;7.94691;0.00489107
706;8.0009;0.00399878
707;8.05565;0.00327041
708;8.09697;0.00367978
709;8.14998;0.00239815
710;8.18318;0.00296394
711;8.23413;0.00374395
712;8.28163;0.00314719
713;8.3234;0.00345962
714;8.35696;0.00350714
715;8.40649;0.00435452
716;8.44749;0.00449369
717;8.49179;0.00290299
718;8.52789;0.00345493
719;8.56883;0.00391572
720;8.60322;0.00344777
721;8.63963;0.00380972
722;8.68063;0.00332946
723;8.71918;0.00496026
724;8.76135;0.00376479
725;8.79598;0.00397688
726;8.83126;0.00350954
727;8.86814;0.0022007
728;8.90157;0.00286577
729;8.94354;0.00275552
730;8.977;0.00332527
731;9.01644;0.00338662
732;9.05083;0.00214359
733;9.08933;0.00239509
734;9.12984;0.00338319
735;9.16071;0.00324818
736;9.20524;0.00384564
737;9.23562;0.00433731
738;9.277;0.00475115
739;9.30539;0.00403495
740;9.33962;0.00323042
741;9.37881;0.00390656
742;9.41276;0.0036456
743;9.44575;0.00244919
744;9.48327;0.0030842
745;9.51824;0.00381687
746;9.56175;0.00346428
747;9.58762;0.00320707
748;9.62991;0.00377368
749;9.66145;0.0037231
750;9.69728;0.00284565
751;9.72947;0.00303888
752;9.76804;0.00274528
753;9.80564;0.00266219
754;9.83555;0.00385366
755;9.86562;0.00223959
756;9.89537;0.00256798
757;9.92916;0.0037086
758;9.96402;0.00371015
759;10.0012;0.00274451
760;10.0293;0.00286805
761;10.0526;0.00336028
762;10.0959;0.00421586
763;10.1224;0.0029987
764;10.1501;0.00391516
765;10.1835;0.00265013
766;10.2045;0.00185974
767;10.2364;0.00275466
768;10.2564;0.00312117
769;10.2838;0.00351307
770;10.3116;0.00455927
771;10.3403;0.00394176
772;10.3703;0.00296074
773;10.3989;0.00375843
774;10.4159;0.00319733
775;10.4488;0.00320076
776;10.4708;0.00306627
777;10.497;0.00221363
778;10.5177;0.0032406
779;10.5473;0.00369031
780;10.5633;0.00224542
781;10.5934;0.00273809
782;10.6236;0.00294491
783;10.6397;0.00215113
784;10.6659;0.00216329
785;10.692;0.0026259
786;10.7117;0.00277216
787;10.739;0.00261707
788;10.7648;0.0027488
789;10.7845;0.00237014
790;10.8176;0.00311185
791;10.8343;0.00406496
792;10.8687;0.00334459
793;10.886;0.00249309
794;10.9134;0.00384816
795;10.932;0.00446971
796;10.968;0.00334927
797;11.0003;0.00285289
798;11.0197;0.00467584
799;11.0419;0.00367246
800;11.0732;0.00334906
801;11.1028;0.00245358
802;11.1395;0.00388383
803;11.1627;0.00329953
804;11.1847;0.00231971
805;11.2194;0.0034696
806;11.2531;0.00267088
807;11.285;0.00279448
808;11.3234;0.00211943
809;11.3548;0.00248848
810;11.3848;0.00446727
811;11.4166;0.00425995
812;11.4431;0.00282201
813;11.4917;0.00412023
814;11.5212;0.00266344
815;11.5521;0.00256838
816;11.5875;0.00341258
817;11.6198;0.00429338
818;11.6584;0.00450984
819;11.6993;0.00405073
820;11.7332;0.00293445
821;11.7797;0.00231667
822;11.8104;0.00252227
823;11.8323;0.00397152
824;11.8788;0.00610533
825;11.9197;0.00548172
826;11.9592;0.00374038
827;11.9904;0.0032212
828;12.0408;0.00320301
829;12.0752;0.00320671
830;12.1053;0.00301973
831;12.1418;0.00258976
832;12.1806;0.00440524
833;12.2144;0.00401887
834;12.2615;0.0044395
835;12.2933;0.00404457
836;12.3352;0.00385132
837;12.3758;0.00320219
838;12.4048;0.00398363
839;12.4368;0.00483328
840;12.484;0.00712084
841;12.5098;0.00488542
842;12.5613;0.00468711
843;12.5954;0.00428446
844;12.6284;0.00279271
845;12.6591;0.00443069
846;12.7053;0.00402231
847;12.7407;0.00400392
848;12.7687;0.00444947
849;12.8043;0.00367153
850;12.8411;0.00480234
851;12.8741;0.00454124
852;12.9005;0.00568042
853;12.9314;0.00558044
854;12.9699;0.00528746
855;12.9986;0.00521952
856;13.036;0.0030798
857;13.0602;0.00354585
858;13.0965;0.00518298
859;13.1258;0.00504791
860;13.156;0.005543
861;13.2001;0.00394704
862;13.2292;0.00367734
863;13.2597;0.00512022
864;13.2848;0.00785096
865;13.3166;0.00673245
866;13.3404;0.00485394
867;13.3696;0.00449061
868;13.3973;0.00392074
869;13.4197;0.00275394
870;13.4614;0.00297679
871;13.4846;0.00480512
872;13.5224;0.00476836
873;13.5419;0.00523798
874;13.5724;0.00337599
875;13.5897;0.0027242
876;13.6239;0.00449641
877;13.6526;0.00477877
878;13.6839;0.0045754
879;13.7034;0.00511166
880;13.7222;0.0051255
881;13.7432;0.00457943
882;13.773;0.00526311
883;13.7926;0.00575794
884;13.8137;0.00476588
885;13.8468;0.00484686
886;13.8626;0.0033055
887;13.8806;0.00346013
888;13.9073;0.00487253
889;13.9268;0.00469841
890;13.9525;0.00346933
891;13.9776;0.00447747
892;14.0009;0.00603615
893;14.035;0.00490741
894;14.0625;0.0046148
895;14.0883;0.00323233
896;14.1088;0.00400013
897;14.1485;0.00395491
898;14.1712;0.00412754
899;14.2024;0.0039504
900;14.2369;0.00276308
901;14.2622;0.00276217
902;14.3024;0.0055497
903;14.3416;0.00429392
904;14.3735;0.00279337
905;14.4097;0.00339873
906;14.4485;0.00355344
907;14.4837;0.00461414
908;14.5139;0.00539528
909;14.5591;0.00574651
910;14.585;0.00473192
911;14.6245;0.00419862
912;14.6616;0.00416033
913;14.7;0.00349154
914;14.7247;0.00504175
915;14.7575;0.00500517
916;14.8054;0.00552044
917;14.8326;0.00500992
918;14.8603;0.00487179
919;14.8965;0.00386709
920;14.9418;0.00492634
921;14.9676;0.00481643
922;15.0021;0.00770592
923;15.0208;0.00530988
924;15.0398;0.00466956
925;15.085;0.00579041
926;15.11;0.00830369
927;15.1392;0.0080033
928;15.1542;0.00565334
929;15.1897;0.00575532
930;15.214;0.00375212
931;15.2479;0.00537017
932;15.2756;0.00473114
933;15.3014;0.00428008
934;15.3319;0.00692831
935;15.3558;0.00893831
936;15.3788;0.0073429
937;15.4107;0.0050099
938;15.4267;0.00791434
939;15.4577;0.00692986
940;15.4625;0.0061974
941;15.4866;0.00578724
942;15.5193;0.0085289
943;15.5451;0.0064463
944;15.5846;0.00594734
945;15.5872;0.00677339
946;15.6154;0.00759881
947;15.6347;0.00895521
948;15.6512;0.00661149
949;15.6636;0.00457983
950;15.7;0.00713776
951;15.7208;0.00688825
952;15.7442;0.00876983
953;15.762;0.0079662
954;15.7902;0.0103116
955;15.8034;0.0102985
956;15.8232;0.00915726
957;15.8446;0.00795833
958;15.8581;0.00726694
959;15.8967;0.00908487
960;15.887;0.0107801
961;15.9177;0.0110856
962;15.9409;0.00919371
963;15.9664;0.0068932
964;15.9787;0.00942972
965;16.0099;0.012253
966;16.0413;0.00867533
967;16.0609;0.0122888
968;16.0853;0.0124394
969;16.1114;0.0102135
970;16.1116;0.00804345
971;16.1549;0.0094384
972;16.1608;0.00920824
973;16.1889;0.00609328
974;16.1951;0.0060734
975;16.2213;0.00983697
976;16.2615;0.0101116
977;16.2784;0.0106174
978;16.2992;0.0105643
979;16.3374;0.0124316
980;16.3538;0.0113103
981;16.3631;0.0150613
982;16.3888;0.0144223
983;16.4054;0.0112071
984;16.4376;0.00937599
985;16.4434;0.0116641
986;16.4829;0.0109661
987;16.4943;0.0080921
988;16.567;0.0102286
989;16.5949;0.0120388
990;16.5596;0.0123102
991;16.6275;0.0102254
992;16.6023;0.0150745
993;16.6442;0.0141679
994;16.6906;0.0132168
995;16.71;0.0202863
996;16.7286;0.0211999
997;16.7389;0.0221873
998;16.7941;0.0219409
999;16.8224;0.0187681
1000;16.8305;0.0181841
1001;16.8319;0.0113606
1002;16.8632;0.0148697
1003;16.9865;0.0249291
1004;16.9145;0.0169517
1005;16.9808;0.0201545
1006;17.0516;0.0146451
1007;17.0598;0.0192756
1008;17.0804;0.0171669
1009;17.105;0.0173564
1010;17.0908;0.0131443
1011;17.1625;0.00846132
1012;17.2013;0.012992
1013;17.2784;0.0263461
1014;17.2472;0.0312407
1015;17.3257;0.0211294
1016;17.3356;0.0167511
1017;17.4107;0.0273206
1018;17.4613;0.0388707
1019;17.4642;0.0236653
1020;17.5168;0.0258011
1021;17.5489;0.0295884
1022;17.5811;0.0395314
1023;17.5759;0.0378602
1024;17.6077;0.036802
1025;17.6578;0.0304827
1026;17.6845;0.0300388
1027;17.7632;0.0355492
1028;17.7577;0.0492396
1029;17.8083;0.0498269
1030;17.8641;0.0345108
1031;17.9407;0.0355697
1032;17.8368;0.0240797
1033;17.9367;0.0330261
1034;17.8933;0.0639568
1035;18.0238;0.062475
1036;17.936;0.0320646
1037;18.0607;0.03968
1038;18.1215;0.0387474
1039;18.0209;0.0545501
1040;18.2184;0.0338836
1041;18.2159;0.0660094
1042;18.1984;0.0451305
1043;18.2065;0.0415669
1044;18.3438;0.0678904
1045;18.3231;0.0531594
1046;18.413;0.0446865
1047;18.4483;0.0776944
1048;18.487;0.0925788
1049;18.5044;0.0630877
1050;18.4347;0.0879367
1051;18.5449;0.0741586
1052;18.522;0.0550339
1053;18.6494;0.0786507
1054;18.4904;0.0581031
1055;18.6725;0.0812989
1056;18.5238;0.0755673
1057;18.7067;0.0839497
1058;18.9696;0.0746499
1059;18.6756;0.104986
1060;18.8656;0.130433
1061;18.6124;0.0897994
1062;19.0387;0.100794
1063;18.6696;0.115291
1064;18.9357;0.109793
1065;19.0206;0.0659961
1066;18.8727;0.081881
1067;18.975;0.15997
1068;18.8687;0.104764
1069;18.8827;0.0960404
1070;19.094;0.104325
1071;18.7697;0.0798679
1072;18.7668;0.120734
1073;19.3112;0.0982081
1074;19.4983;0.108115
1075;19.4434;0.143371
1076;18.9798;0.159863
1077;19.2629;0.11492
1078;19.2492;0.111696
1079;19.189;0.112626
1080;19.0937;0.212887
1081;18.9011;0.135892
1082;19.1759;0.153704
1083;19.2182;0.12311
1084;19.5387;0.192613
1085;19.1259;0.0920126
1086;19.9653;0.167827
1087;18.8917;0.191575
1088;19.3712;0.146229
1089;19.4092;0.145424
1090;19.345;0.223225
1091;19.4464;0.186098
1092;19.4229;0.20275
1093;19.213;0.298298
1094;19.4166;0.294083
1095;18.71;0.343094
1096;19.0348;0.228954
1097;19.6278;0.316515
1098;19.1982;0.388805
1099;19.3737;0.263362
1100;19.1475;0.248306