File: data-raw/photo-filters/Zomei-ND09-Resin-1.7mm-52mm-LYR.CSV
Wavelength (nm);Transmittance(%);Std.Dev.
190;0.0100533;0.00409312
191;0.01;0.00754411
192;0.01;0.0146861
193;0.01;0.0174326
194;0.01;0.0152864
195;0.01;0.0269114
196;0.0100178;0.013885
197;0.01;0.0118948
198;0.0110866;0.00759088
199;0.0100134;0.00833773
200;0.01;0.00585972
201;0.01;0.00875312
202;0.01;0.0099162
203;0.01;0.00778465
204;0.01;0.00851085
205;0.01;0.0128951
206;0.01;0.00690939
207;0.01;0.00887976
208;0.01;0.0220407
209;0.01;0.0321183
210;0.01;0.0224636
211;0.01;0.0343425
212;0.01;0.0287959
213;0.01;0.0141722
214;0.01;0.00694472
215;0.01;0.0118232
216;0.01;0.0065832
217;0.0100103;0.00939977
218;0.01;0.0146088
219;0.0101877;0.00752844
220;0.0102084;0.00964019
221;0.01;0.0168972
222;0.0100112;0.0091277
223;0.01;0.00749354
224;0.01;0.00546531
225;0.01;0.0037833
226;0.01;0.00621385
227;0.01;0.00782443
228;0.01;0.00725089
229;0.01;0.0181011
230;0.01;0.0327943
231;0.01;0.0210506
232;0.01;0.00894963
233;0.01;0.0168948
234;0.01;0.0333704
235;0.01;0.0170749
236;0.01;0.0056122
237;0.01;0.00506465
238;0.01;0.00410187
239;0.01;0.00753138
240;0.01;0.0152414
241;0.01;0.0133755
242;0.01;0.00695403
243;0.01;0.0123149
244;0.01;0.0230428
245;0.01;0.0237482
246;0.01;0.0142678
247;0.01;0.0132048
248;0.01;0.00772427
249;0.01;0.00702852
250;0.01;0.0130637
251;0.01;0.0153353
252;0.01;0.00750798
253;0.01;0.00376656
254;0.01;0.00639748
255;0.01;0.0116011
256;0.0100045;0.0240656
257;0.01;0.0152297
258;0.0100425;0.00578463
259;0.0102322;0.00696998
260;0.01;0.0126589
261;0.0130919;0.00789572
262;0.0185019;0.004366
263;0.0115078;0.00243804
264;0.0149108;0.00191286
265;0.0222491;0.00136317
266;0.0214626;0.0016713
267;0.0294937;0.00192953
268;0.0254435;0.00273082
269;0.0170347;0.00252185
270;0.0291512;0.00318052
271;0.011156;0.00167219
272;0.0189247;0.00650528
273;0.010724;0.00729145
274;0.0127827;0.00456396
275;0.0109194;0.00339879
276;0.01;0.00626199
277;0.01;0.0184192
278;0.0100408;0.00964072
279;0.0116896;0.00996712
280;0.01;0.00586334
281;0.010034;0.0068555
282;0.01;0.0134929
283;0.01;0.0263831
284;0.0100955;0.0138257
285;0.01;0.00576033
286;0.0119672;0.00357311
287;0.0165971;0.00939739
288;0.01;0.00959948
289;0.0103423;0.006335
290;0.01;0.00410384
291;0.0179285;0.0113139
292;0.0188529;0.0248415
293;0.01;0.00840756
294;0.0102422;0.00763984
295;0.0104089;0.00672373
296;0.0103367;0.00759795
297;0.01;0.0136654
298;0.0100181;0.0127603
299;0.01;0.00804654
300;0.01;0.00777985
301;0.01;0.00613359
302;0.01;0.00474646
303;0.01;0.00896476
304;0.01;0.0120028
305;0.01;0.0063317
306;0.01;0.00575648
307;0.01;0.00384856
308;0.01;0.0111849
309;0.01;0.00994797
310;0.01;0.016247
311;0.01;0.0086798
312;0.01;0.00299995
313;0.01;0.00438856
314;0.01;0.00873184
315;0.01;0.0155034
316;0.01;0.0170431
317;0.01;0.0177827
318;0.01;0.0191716
319;0.01;0.0106005
320;0.01;0.0128082
321;0.01;0.00740545
322;0.01;0.0161222
323;0.01;0.034638
324;0.01;0.0175874
325;0.01;0.00924488
326;0.01;0.0140026
327;0.01;0.0139997
328;0.01;0.0148278
329;0.01;0.0108625
330;0.01;0.0128303
331;0.010017;0.0144116
332;0.01;0.00846772
333;0.010907;0.0159597
334;0.01;0.0198152
335;0.0100106;0.00968838
336;0.01;0.00589825
337;0.01;0.0109
338;0.0100145;0.0125104
339;0.01;0.00721958
340;0.010329;0.00576428
341;0.0108975;0.00834799
342;0.01;0.00733547
343;0.0101845;0.0117367
344;0.01;0.0171344
345;0.0133248;0.0114468
346;0.0162983;0.0158136
347;0.0104372;0.0205405
348;0.0121762;0.0122112
349;0.0152417;0.0076449
350;0.010805;0.0122816
351;0.01;0.0170673
352;0.0100799;0.0106592
353;0.014666;0.0100356
354;0.0223517;0.0101095
355;0.01;0.00587351
356;0.0231342;0.0333389
357;0.01;0.0184657
358;0.0101641;0.0104396
359;0.01;0.0114451
360;0.0101556;0.00983279
361;0.01;0.0115245
362;0.0141102;0.00885081
363;0.0279017;0.0274358
364;0.0103852;0.0183928
365;0.01;0.0111035
366;0.0140602;0.00572416
367;0.0354367;0.00460238
368;0.0391944;0.0101276
369;0.0201895;0.00976837
370;0.0270529;0.00813393
371;0.0455235;0.00727728
372;0.0685953;0.00911986
373;0.0973757;0.0104283
374;0.124441;0.0110136
375;0.154567;0.00786924
376;0.220824;0.00694336
377;0.263592;0.00574637
378;0.353186;0.00646035
379;0.457911;0.00473386
380;0.584485;0.0041056
381;0.700852;0.00574773
382;0.7239;0.00389688
383;0.908339;0.00336419
384;1.10595;0.00513297
385;1.33744;0.00834171
386;1.5553;0.0058867
387;1.82039;0.00538508
388;2.08243;0.00646542
389;2.34847;0.00641412
390;2.61033;0.00696175
391;2.87786;0.00600015
392;3.18437;0.00532188
393;3.47588;0.00367413
394;3.72525;0.00364457
395;4.00247;0.00613033
396;4.26161;0.00584751
397;4.52874;0.00570395
398;4.78951;0.00551078
399;4.99401;0.00563721
400;5.21536;0.00785971
401;5.41192;0.00738317
402;5.62339;0.00475184
403;5.82327;0.00482179
404;6.01726;0.0038449
405;6.20325;0.00467036
406;6.3435;0.00592696
407;6.48757;0.00554291
408;6.64323;0.0052959
409;6.80082;0.00440693
410;6.9193;0.00428692
411;7.03831;0.00671489
412;7.18898;0.00703642
413;7.32303;0.00727604
414;7.44613;0.00697806
415;7.55327;0.0104801
416;7.68455;0.0052091
417;7.80621;0.00511251
418;7.93309;0.00576423
419;8.06417;0.00819109
420;8.18122;0.00877456
421;8.34058;0.00748463
422;8.47946;0.00615841
423;8.59603;0.00543699
424;8.71695;0.005272
425;8.8467;0.00837717
426;8.98129;0.00886471
427;9.13496;0.00857351
428;9.26521;0.00716674
429;9.40564;0.00666481
430;9.5831;0.00776874
431;9.68932;0.00877374
432;9.82425;0.0110671
433;9.99022;0.00720385
434;10.1583;0.00911956
435;10.27;0.00931874
436;10.4289;0.0058951
437;10.5828;0.00589838
438;10.7345;0.00858019
439;10.8767;0.00723803
440;11.0215;0.006562
441;11.1764;0.00757164
442;11.2985;0.00747405
443;11.4258;0.00836534
444;11.569;0.00887182
445;11.6956;0.00739889
446;11.8494;0.00845334
447;11.9291;0.0110779
448;12.0627;0.0110422
449;12.1679;0.00571141
450;12.3364;0.00373357
451;12.4198;0.00434014
452;12.5533;0.00431237
453;12.6415;0.00388357
454;12.7417;0.00528453
455;12.834;0.00785296
456;12.9309;0.00895037
457;13.0336;0.0078997
458;13.1408;0.00992216
459;13.2358;0.0102326
460;13.2877;0.00937646
461;13.3952;0.00646751
462;13.436;0.00912345
463;13.5327;0.0134708
464;13.5925;0.0104635
465;13.6756;0.00496776
466;13.6887;0.00641144
467;13.751;0.00868912
468;13.8038;0.0074875
469;13.8305;0.00814364
470;13.8698;0.0110243
471;13.9357;0.00856255
472;14.0043;0.0086157
473;14.0442;0.00745801
474;14.0673;0.00662445
475;14.1215;0.00633371
476;14.1496;0.00774519
477;14.1564;0.00816167
478;14.1847;0.00743503
479;14.2001;0.0115366
480;14.2276;0.00747215
481;14.2386;0.00807727
482;14.2526;0.00481352
483;14.2753;0.00523087
484;14.2523;0.00933866
485;14.3422;0.00665878
486;14.4025;0.00337695
487;14.2248;0.00292515
488;14.2399;0.00425921
489;14.2651;0.0058006
490;14.2532;0.00629333
491;14.2466;0.00610003
492;14.2069;0.00564936
493;14.1956;0.00792979
494;14.1807;0.00585441
495;14.1486;0.00945995
496;14.1479;0.00596967
497;14.0928;0.00412345
498;14.075;0.00571281
499;14.0499;0.00749543
500;14.0079;0.00585639
501;13.9771;0.00591419
502;13.9486;0.00594853
503;13.9027;0.00604138
504;13.8587;0.00499325
505;13.8166;0.0054106
506;13.7932;0.00473309
507;13.7362;0.00628616
508;13.7189;0.00396893
509;13.6747;0.00529908
510;13.6169;0.00843922
511;13.5921;0.00593213
512;13.5427;0.00427618
513;13.4954;0.00527791
514;13.4531;0.003716
515;13.3884;0.00631311
516;13.332;0.00903239
517;13.2823;0.00529936
518;13.2097;0.00509135
519;13.1426;0.00607749
520;13.0608;0.00644346
521;12.9801;0.00564825
522;12.9023;0.00557551
523;12.8171;0.00386945
524;12.7364;0.00413919
525;12.6272;0.00445374
526;12.5224;0.00571514
527;12.4226;0.00614147
528;12.3162;0.005239
529;12.204;0.00547315
530;12.0846;0.00366351
531;11.9611;0.00322975
532;11.8633;0.00404619
533;11.7283;0.00335708
534;11.6112;0.00470119
535;11.5074;0.00671287
536;11.3978;0.005592
537;11.2773;0.00518237
538;11.1752;0.00338987
539;11.0782;0.00423105
540;10.9747;0.00430399
541;10.884;0.00516999
542;10.8115;0.00573876
543;10.7381;0.00753718
544;10.6732;0.0047274
545;10.6054;0.00344882
546;10.5459;0.00344891
547;10.4969;0.00404321
548;10.4423;0.0060186
549;10.3894;0.00350924
550;10.3472;0.00458313
551;10.3154;0.00362238
552;10.2611;0.00385443
553;10.2264;0.00418639
554;10.1872;0.00445072
555;10.1433;0.00453328
556;10.0841;0.00281976
557;10.0364;0.00374183
558;9.97917;0.00387267
559;9.92468;0.00430789
560;9.86638;0.00438163
561;9.78558;0.00466302
562;9.70429;0.00289468
563;9.635;0.00275009
564;9.53932;0.00337717
565;9.44021;0.00358418
566;9.34732;0.00333797
567;9.242;0.00374116
568;9.14035;0.00266671
569;9.03387;0.00289323
570;8.93064;0.00351676
571;8.81353;0.00296688
572;8.70445;0.0048311
573;8.59415;0.00349861
574;8.50771;0.00255749
575;8.39526;0.00254894
576;8.30504;0.00217791
577;8.22567;0.00206522
578;8.1436;0.00312476
579;8.07079;0.00245561
580;8.01929;0.00259126
581;7.97556;0.00256699
582;7.94335;0.00294233
583;7.89226;0.00326674
584;7.90048;0.00300234
585;7.92946;0.00372992
586;7.93216;0.00242872
587;7.9753;0.00247765
588;8.02489;0.00381678
589;8.07712;0.00354512
590;8.15952;0.00436418
591;8.25264;0.0040617
592;8.34944;0.00473688
593;8.4729;0.00364255
594;8.56977;0.00520657
595;8.69955;0.0038913
596;8.81997;0.00230621
597;8.94675;0.0019485
598;9.08289;0.00191001
599;9.21027;0.0021936
600;9.33244;0.00342967
601;9.4615;0.00418648
602;9.57592;0.00351273
603;9.6933;0.00397341
604;9.78582;0.00330474
605;9.87899;0.00319932
606;9.96584;0.004857
607;10.026;0.00333669
608;10.0918;0.00410038
609;10.1443;0.00476436
610;10.1887;0.00361581
611;10.2153;0.00371539
612;10.2268;0.00387573
613;10.2268;0.00312284
614;10.2331;0.00373478
615;10.2256;0.00457357
616;10.2074;0.00519237
617;10.177;0.00362698
618;10.1499;0.00281862
619;10.1343;0.0038157
620;10.1083;0.00298316
621;10.0694;0.00251237
622;10.056;0.00251459
623;10.015;0.00402979
624;9.96648;0.00597263
625;9.91324;0.00404897
626;9.89606;0.00361374
627;9.89917;0.00361984
628;9.94347;0.00318732
629;9.99822;0.00320945
630;10.0617;0.00355111
631;10.1461;0.00424761
632;10.2507;0.00333006
633;10.3871;0.00519558
634;10.545;0.00414202
635;10.7168;0.00297446
636;10.9235;0.00326946
637;11.1507;0.00458992
638;11.4147;0.00407308
639;11.7084;0.00408378
640;12.0439;0.00543979
641;12.36;0.00423757
642;12.7447;0.00781211
643;13.1485;0.00652313
644;13.5788;0.00561686
645;13.9961;0.00531737
646;14.4165;0.00389212
647;14.8466;0.00686455
648;15.2915;0.00889048
649;15.7504;0.00517691
650;16.231;0.00412724
651;16.7243;0.00565926
652;17.2213;0.00425112
653;17.7354;0.0041627
654;18.2137;0.00595454
655;18.8134;0.00446579
656;19.5469;0.0041842
657;19.5587;0.00471023
658;20.0534;0.00513086
659;20.6657;0.00614412
660;21.1008;0.00543798
661;21.5598;0.0047398
662;22.0215;0.00479872
663;22.4428;0.00496115
664;22.8441;0.00428305
665;23.2365;0.00452035
666;23.6176;0.00546821
667;24.0044;0.00509533
668;24.3675;0.00450286
669;24.6809;0.00577219
670;25.0826;0.00372722
671;25.3508;0.00388972
672;25.6629;0.00501452
673;25.9561;0.00518112
674;26.2332;0.00438061
675;26.4998;0.00454079
676;26.7461;0.00416595
677;26.9944;0.00429986
678;27.2308;0.00488094
679;27.4442;0.00487115
680;27.6652;0.00513844
681;27.8684;0.00435702
682;28.0631;0.00538842
683;28.2479;0.00583594
684;28.4296;0.00506955
685;28.5986;0.00552355
686;28.7552;0.00379271
687;28.9045;0.00539847
688;29.0647;0.00594434
689;29.2084;0.00641505
690;29.3557;0.00545101
691;29.4908;0.00577785
692;29.6275;0.0057708
693;29.742;0.0071048
694;29.8619;0.00507883
695;29.9756;0.00608026
696;30.0945;0.00560428
697;30.2121;0.00560992
698;30.3323;0.00677365
699;30.4369;0.00571093
700;30.5515;0.00476459
701;30.6412;0.00478497
702;30.7532;0.0054592
703;30.8475;0.00631097
704;30.9293;0.00684576
705;31.0279;0.00659394
706;31.1154;0.00504151
707;31.2156;0.00403831
708;31.2935;0.00527541
709;31.3765;0.00489422
710;31.4638;0.00478845
711;31.5442;0.00611361
712;31.6415;0.00624131
713;31.7094;0.00584477
714;31.7824;0.00573587
715;31.8642;0.00586883
716;31.9399;0.0046773
717;32.0197;0.00482052
718;32.0948;0.00460348
719;32.1735;0.00481836
720;32.2433;0.00619461
721;32.3142;0.00665278
722;32.3863;0.00551252
723;32.4486;0.00658207
724;32.5214;0.00633799
725;32.5892;0.00498329
726;32.656;0.00503478
727;32.7198;0.006037
728;32.7906;0.00569855
729;32.8595;0.00678906
730;32.9229;0.00657694
731;32.993;0.00549032
732;33.0585;0.006613
733;33.1245;0.00562737
734;33.18;0.00645833
735;33.2581;0.00533459
736;33.3115;0.006987
737;33.3765;0.00567765
738;33.4171;0.00512224
739;33.4875;0.00457128
740;33.5464;0.00525532
741;33.5968;0.0069641
742;33.6441;0.00512267
743;33.693;0.00519254
744;33.7623;0.00673974
745;33.8185;0.00705632
746;33.8808;0.00523063
747;33.9348;0.00649548
748;33.9879;0.00575703
749;34.048;0.00529934
750;34.1;0.00571306
751;34.1401;0.00542476
752;34.1876;0.00606561
753;34.2323;0.00591994
754;34.2857;0.0069911
755;34.3447;0.00633838
756;34.384;0.00587747
757;34.4492;0.00488176
758;34.502;0.00699101
759;34.5418;0.00480314
760;34.5795;0.0045401
761;34.6163;0.00635131
762;34.6657;0.00726106
763;34.7119;0.0066221
764;34.7628;0.0077277
765;34.8202;0.00594528
766;34.8568;0.00488083
767;34.8928;0.00586043
768;34.9112;0.00771359
769;34.9495;0.00582538
770;35.013;0.0066546
771;35.0723;0.00661822
772;35.1218;0.00671969
773;35.1346;0.00796039
774;35.1581;0.00778559
775;35.1974;0.00719758
776;35.2522;0.00544111
777;35.3048;0.00566645
778;35.3455;0.00469984
779;35.3634;0.00557414
780;35.3895;0.00726372
781;35.4335;0.00598358
782;35.4867;0.0065438
783;35.5245;0.00684459
784;35.5483;0.0061479
785;35.5682;0.00508206
786;35.607;0.00600169
787;35.6494;0.00593702
788;35.7017;0.00671757
789;35.719;0.005372
790;35.7321;0.0045875
791;35.7695;0.00446639
792;35.8199;0.00520478
793;35.8511;0.0067552
794;35.86;0.0067807
795;35.8858;0.00657397
796;35.949;0.00592465
797;35.987;0.00559416
798;35.9959;0.00512735
799;36.0104;0.00636696
800;36.064;0.00513095
801;36.1073;0.00651711
802;36.1293;0.00719302
803;36.1488;0.00841182
804;36.1892;0.00666469
805;36.2249;0.00669802
806;36.2411;0.00699059
807;36.2623;0.0053602
808;36.3052;0.00668559
809;36.3421;0.00606263
810;36.3728;0.0068621
811;36.3808;0.00686223
812;36.4316;0.00627342
813;36.4618;0.00899606
814;36.4822;0.00590808
815;36.5223;0.00606782
816;36.5601;0.00673934
817;36.5901;0.00620146
818;36.6087;0.00556041
819;36.666;0.00532651
820;36.6828;0.00755948
821;36.709;0.00724111
822;36.7598;0.00676244
823;36.8061;0.00644751
824;36.826;0.00647326
825;36.8583;0.00715521
826;36.9026;0.00643744
827;36.9354;0.00682915
828;36.959;0.00785734
829;37.0096;0.00802497
830;37.0498;0.00677867
831;37.081;0.0056323
832;37.1292;0.00707937
833;37.1546;0.0078129
834;37.1888;0.00670922
835;37.2261;0.0072821
836;37.2717;0.00782962
837;37.2989;0.00769561
838;37.3388;0.0084818
839;37.3837;0.00657489
840;37.4219;0.00748789
841;37.4616;0.00922295
842;37.4976;0.00915825
843;37.5265;0.00886381
844;37.5851;0.00870173
845;37.6216;0.00771899
846;37.6587;0.00979984
847;37.715;0.00885563
848;37.7441;0.00726218
849;37.7763;0.00751269
850;37.8202;0.00760259
851;37.8478;0.00670923
852;37.8918;0.00644964
853;37.9345;0.00508989
854;37.9766;0.00596701
855;38.0325;0.00581938
856;38.0736;0.00833615
857;38.0969;0.00811845
858;38.1431;0.00775009
859;38.1864;0.00726997
860;38.2304;0.00668239
861;38.2745;0.0054618
862;38.3075;0.00527035
863;38.3549;0.00935266
864;38.39;0.0108493
865;38.4257;0.00891193
866;38.4614;0.00762079
867;38.5067;0.00575115
868;38.5541;0.00914619
869;38.6013;0.00780991
870;38.6247;0.0110222
871;38.6813;0.0108804
872;38.7139;0.00895118
873;38.7519;0.00707167
874;38.7891;0.00824223
875;38.836;0.00865251
876;38.8791;0.010708
877;38.907;0.00899583
878;38.9496;0.00734763
879;38.9717;0.00738534
880;39.0189;0.00778506
881;39.0422;0.00682941
882;39.0638;0.00731543
883;39.0918;0.0073048
884;39.1174;0.00648947
885;39.1377;0.00636385
886;39.1663;0.00680724
887;39.1968;0.00713277
888;39.2262;0.00833244
889;39.2581;0.00842279
890;39.2784;0.00762916
891;39.3413;0.00826552
892;39.3632;0.00841409
893;39.4051;0.00785736
894;39.4412;0.00645039
895;39.4942;0.00723278
896;39.5307;0.00724129
897;39.5811;0.00740899
898;39.6298;0.00780502
899;39.6884;0.0102796
900;39.7339;0.00758919
901;39.8014;0.00766078
902;39.8694;0.00717161
903;39.9268;0.00561057
904;39.9833;0.00739817
905;40.0615;0.00660212
906;40.1227;0.0073845
907;40.1932;0.00876387
908;40.2646;0.00787327
909;40.3384;0.00640888
910;40.4012;0.00897123
911;40.45;0.0104406
912;40.5353;0.0105703
913;40.6102;0.00615529
914;40.6789;0.00792375
915;40.7418;0.0117898
916;40.8012;0.00999908
917;40.8716;0.00863148
918;40.9451;0.00863834
919;41.0028;0.00690633
920;41.0762;0.00972844
921;41.1271;0.0118769
922;41.1919;0.0104438
923;41.2472;0.00880167
924;41.3064;0.0100035
925;41.3485;0.00966836
926;41.4118;0.00990399
927;41.4649;0.00903244
928;41.5168;0.010658
929;41.5753;0.00883095
930;41.6139;0.0112919
931;41.6683;0.0106875
932;41.722;0.0087386
933;41.7977;0.00878878
934;41.8567;0.00991541
935;41.8807;0.0100549
936;41.9178;0.0105094
937;41.975;0.00971109
938;42.0361;0.0109887
939;42.063;0.00770793
940;42.1188;0.00889462
941;42.1662;0.0115519
942;42.2136;0.00974184
943;42.2632;0.00882687
944;42.3037;0.00858793
945;42.3601;0.00985259
946;42.385;0.0125853
947;42.4276;0.0155612
948;42.4742;0.0121634
949;42.5203;0.00941474
950;42.5523;0.0118919
951;42.5815;0.0155112
952;42.6417;0.0118208
953;42.6596;0.0121603
954;42.7202;0.0101675
955;42.7419;0.00947683
956;42.7719;0.0103111
957;42.8103;0.00997791
958;42.8344;0.0120295
959;42.9103;0.0127566
960;42.9117;0.0106038
961;42.9648;0.0112578
962;42.9727;0.0115202
963;43.0031;0.0124011
964;43.0424;0.0124749
965;43.0663;0.0162779
966;43.1089;0.0170042
967;43.1456;0.0113123
968;43.1605;0.0121592
969;43.1982;0.0156441
970;43.2164;0.0111306
971;43.2579;0.0118533
972;43.2821;0.0158999
973;43.2712;0.0180518
974;43.3132;0.0184346
975;43.3292;0.0151374
976;43.377;0.0105431
977;43.3718;0.0116669
978;43.4366;0.0134345
979;43.4411;0.0106644
980;43.4537;0.0116636
981;43.4706;0.0154774
982;43.4958;0.0131642
983;43.5133;0.0149373
984;43.5568;0.0137941
985;43.5661;0.0168963
986;43.5814;0.0198445
987;43.5805;0.0255013
988;43.6003;0.0203592
989;43.6143;0.0179109
990;43.6585;0.0176167
991;43.7043;0.0189503
992;43.737;0.0153106
993;43.7402;0.0164206
994;43.7467;0.0211808
995;43.7459;0.0267454
996;43.7454;0.0252895
997;43.7882;0.0282703
998;43.8274;0.0289256
999;43.8269;0.0185915
1000;43.8355;0.0130338
1001;43.8238;0.0182351
1002;43.872;0.0277042
1003;43.9063;0.0195548
1004;43.922;0.0249414
1005;43.9428;0.0212403
1006;43.9606;0.0385256
1007;43.9277;0.0279991
1008;44.0073;0.0248331
1009;44.0239;0.0290141
1010;44.1261;0.0379323
1011;44.0995;0.0238786
1012;44.1686;0.020963
1013;44.2747;0.0273729
1014;44.1662;0.0328618
1015;44.2387;0.0250911
1016;44.2648;0.0322622
1017;44.2949;0.0369414
1018;44.3606;0.0374944
1019;44.3806;0.0322861
1020;44.3768;0.0288492
1021;44.4038;0.0285348
1022;44.4391;0.0300649
1023;44.4763;0.0304681
1024;44.4633;0.0241128
1025;44.4727;0.0332314
1026;44.5913;0.0374311
1027;44.53;0.0579661
1028;44.6259;0.0512684
1029;44.7481;0.0598757
1030;44.6909;0.054423
1031;44.7318;0.0415463
1032;44.7139;0.0521014
1033;44.7601;0.0654357
1034;44.7848;0.0613665
1035;44.7557;0.0401934
1036;44.7691;0.0695429
1037;44.8325;0.0652107
1038;44.9374;0.0680388
1039;44.8457;0.0574109
1040;45.051;0.0599253
1041;44.8819;0.0638186
1042;45.0173;0.0527047
1043;45.0035;0.0507458
1044;45.16;0.0608679
1045;45.113;0.0985798
1046;44.9931;0.0875304
1047;45.0707;0.0765975
1048;45.2316;0.0680855
1049;45.1169;0.0669053
1050;45.3854;0.0828273
1051;45.3886;0.0970944
1052;45.2135;0.0947477
1053;45.3619;0.0550012
1054;45.3382;0.0699763
1055;45.4441;0.0949713
1056;45.26;0.0791551
1057;45.4507;0.0777287
1058;45.3298;0.118572
1059;45.7464;0.113128
1060;45.5902;0.092091
1061;45.6236;0.0777481
1062;45.5592;0.135051
1063;45.547;0.125561
1064;45.4388;0.121327
1065;45.5053;0.141332
1066;45.6171;0.160102
1067;45.731;0.122848
1068;45.597;0.114523
1069;45.7792;0.117823
1070;45.7531;0.129183
1071;45.8521;0.159919
1072;45.7527;0.142026
1073;46.0757;0.179244
1074;45.621;0.166371
1075;45.6001;0.139281
1076;45.4413;0.186836
1077;45.7208;0.264561
1078;45.5121;0.21917
1079;45.6295;0.151892
1080;45.7805;0.178295
1081;45.3142;0.159027
1082;46.1958;0.226062
1083;45.5166;0.239487
1084;46.14;0.228174
1085;45.6141;0.175073
1086;45.5892;0.178814
1087;45.7017;0.183894
1088;45.9738;0.229568
1089;45.5306;0.285272
1090;45.7908;0.242584
1091;45.9475;0.219035
1092;46.0708;0.226725
1093;45.972;0.307799
1094;45.9183;0.31782
1095;45.9882;0.211445
1096;45.4187;0.240422
1097;45.9621;0.343742
1098;45.6523;0.283682
1099;45.1774;0.329783
1100;45.5167;0.276067